"","ID","condition","part","age","gender","trial","image","choice","correct","rt"
"1","FP10a","FlexPairA","Part1",26,"Male",1,"stimulus_part_one_and_two\stimulus1_5_L.jpg","left",1,44.5938288999987
"2","FP10a","FlexPairA","Part1",26,"Male",2,"stimulus_part_one_and_two\stimulus2_6_R.jpg","right",1,36.3180448999992
"3","FP10a","FlexPairA","Part1",26,"Male",3,"stimulus_part_one_and_two\stimulus3_5_L.jpg","right",0,6.60645099999965
"4","FP10a","FlexPairA","Part1",26,"Male",4,"stimulus_part_one_and_two\stimulus4_7_L.jpg","left",1,20.2608928000009
"5","FP10a","FlexPairA","Part1",26,"Male",5,"stimulus_part_one_and_two\stimulus5_6_R.jpg","left",0,24.1521817000012
"6","FP10a","FlexPairA","Part1",26,"Male",6,"stimulus_part_one_and_two\stimulus6_8_R.jpg","right",1,36.7101438999998
"7","FP10a","FlexPairA","Part1",26,"Male",7,"stimulus_part_one_and_two\stimulus7_8_R.jpg","right",1,30.2928518000008
"8","FP10a","FlexPairA","Part1",26,"Male",8,"stimulus_part_one_and_two\stimulus8_7_L.jpg","left",1,24.0295894999999
"9","FP10a","FlexPairA","Part1",26,"Male",9,"stimulus_part_one_and_two\stimulus91_28_R.jpg","left",0,48.619850000001
"10","FP10a","FlexPairA","Part3",26,"Male",1,"stimulus_part_three\stimulus93_31_L.jpg","left",1,24.3583190000008
"11","FP10a","FlexPairA","Part3",26,"Male",2,"stimulus_part_three\stimulus94_1_L.jpg","left",1,26.6803091999991
"12","FP10a","FlexPairA","Part3",26,"Male",3,"stimulus_part_three\stimulus95_2_L.jpg","left",1,18.3773392000003
"13","FP10a","FlexPairA","Part3",26,"Male",4,"stimulus_part_three\stimulus96_10_R.jpg","right",1,43.9741465000006
"14","CP01a","Pair","Part1",25,"Female",1,"stimulus_part_one_and_two\stimulus1_5_L.jpg","left",1,97.6497039000005
"15","CP01a","Pair","Part1",25,"Female",2,"stimulus_part_one_and_two\stimulus2_6_R.jpg","right",1,33.1336078999993
"16","CP01a","Pair","Part1",25,"Female",3,"stimulus_part_one_and_two\stimulus3_5_L.jpg","left",1,43.7269928000005
"17","CP01a","Pair","Part1",25,"Female",4,"stimulus_part_one_and_two\stimulus4_7_L.jpg","left",1,39.6040885000002
"18","CP01a","Pair","Part1",25,"Female",5,"stimulus_part_one_and_two\stimulus5_6_R.jpg","right",1,31.5022282000009
"19","CP01a","Pair","Part1",25,"Female",6,"stimulus_part_one_and_two\stimulus6_8_R.jpg","right",1,52.3320273999998
"20","CP01a","Pair","Part1",25,"Female",7,"stimulus_part_one_and_two\stimulus7_8_R.jpg","right",1,61.4094053999997
"21","CP01a","Pair","Part1",25,"Female",8,"stimulus_part_one_and_two\stimulus8_7_L.jpg","left",1,18.1884356999999
"22","CP01a","Pair","Part1",25,"Female",9,"stimulus_part_one_and_two\stimulus91_28_R.jpg","right",1,15.2612534
"23","CP01a","Pair","Part3",25,"Female",1,"stimulus_part_three\stimulus93_31_L.jpg","left",1,11.1497488999994
"24","CP01a","Pair","Part3",25,"Female",2,"stimulus_part_three\stimulus94_1_L.jpg","right",0,16.9956108000006
"25","CP01a","Pair","Part3",25,"Female",3,"stimulus_part_three\stimulus95_2_L.jpg","left",1,32.8672535999995
"26","CP01a","Pair","Part3",25,"Female",4,"stimulus_part_three\stimulus96_10_R.jpg","right",1,13.1552070000016
"27","CP01b","Pair","Part3",25,"Female",1,"stimulus_part_three\stimulus93_31_L.jpg","left",1,15.3883765999999
"28","CP01b","Pair","Part3",25,"Female",2,"stimulus_part_three\stimulus94_1_L.jpg","left",1,38.0395449999996
"29","CP01b","Pair","Part3",25,"Female",3,"stimulus_part_three\stimulus95_2_L.jpg","left",1,34.7895654999993
"30","CP01b","Pair","Part3",25,"Female",4,"stimulus_part_three\stimulus96_10_R.jpg","right",1,15.6145873000005
"31","CP02a","Pair","Part1",25,"Male",1,"stimulus_part_one_and_two\stimulus1_5_L.jpg","left",1,38.7692612999999
"32","CP02a","Pair","Part1",25,"Male",2,"stimulus_part_one_and_two\stimulus2_6_R.jpg","right",1,43.5327523000005
"33","CP02a","Pair","Part1",25,"Male",3,"stimulus_part_one_and_two\stimulus3_5_L.jpg","left",1,36.9652179000004
"34","CP02a","Pair","Part1",25,"Male",4,"stimulus_part_one_and_two\stimulus4_7_L.jpg","left",1,18.2453781999993
"35","CP02a","Pair","Part1",25,"Male",5,"stimulus_part_one_and_two\stimulus5_6_R.jpg","right",1,11.8165004000002
"36","CP02a","Pair","Part1",25,"Male",6,"stimulus_part_one_and_two\stimulus6_8_R.jpg","right",1,8.34952040000007
"37","CP02a","Pair","Part1",25,"Male",7,"stimulus_part_one_and_two\stimulus7_8_R.jpg","right",1,8.45434899999964
"38","CP02a","Pair","Part1",25,"Male",8,"stimulus_part_one_and_two\stimulus8_7_L.jpg","left",1,16.4225944
"39","CP02a","Pair","Part1",25,"Male",9,"stimulus_part_one_and_two\stimulus91_28_R.jpg","right",1,22.2121734000002
"40","CP02a","Pair","Part3",25,"Male",1,"stimulus_part_three\stimulus93_31_L.jpg","left",1,14.9264297999998
"41","CP02a","Pair","Part3",25,"Male",2,"stimulus_part_three\stimulus94_1_L.jpg","left",1,29.9201362000003
"42","CP02a","Pair","Part3",25,"Male",3,"stimulus_part_three\stimulus95_2_L.jpg","left",1,9.40867969999999
"43","CP02a","Pair","Part3",25,"Male",4,"stimulus_part_three\stimulus96_10_R.jpg","right",1,9.8149753000007
"44","CP02b","Pair","Part3",33,"Male",1,"stimulus_part_three\stimulus93_31_L.jpg","left",1,22.4057254999998
"45","CP02b","Pair","Part3",33,"Male",2,"stimulus_part_three\stimulus94_1_L.jpg","left",1,35.0476758999994
"46","CP02b","Pair","Part3",33,"Male",3,"stimulus_part_three\stimulus95_2_L.jpg","left",1,28.5984415000003
"47","CP02b","Pair","Part3",33,"Male",4,"stimulus_part_three\stimulus96_10_R.jpg","right",1,37.9771026999997
"48","CP03a","Pair","Part1",28,"Female",1,"stimulus_part_one_and_two\stimulus1_5_L.jpg","left",1,69.876769
"49","CP03a","Pair","Part1",28,"Female",2,"stimulus_part_one_and_two\stimulus2_6_R.jpg","left",0,25.9674253000003
"50","CP03a","Pair","Part1",28,"Female",3,"stimulus_part_one_and_two\stimulus3_5_L.jpg","left",1,61.1820807000004
"51","CP03a","Pair","Part1",28,"Female",4,"stimulus_part_one_and_two\stimulus4_7_L.jpg","left",1,9.015355
"52","CP03a","Pair","Part1",28,"Female",5,"stimulus_part_one_and_two\stimulus5_6_R.jpg","right",1,6.19352800000024
"53","CP03a","Pair","Part1",28,"Female",6,"stimulus_part_one_and_two\stimulus6_8_R.jpg","right",1,6.02400970000008
"54","CP03a","Pair","Part1",28,"Female",7,"stimulus_part_one_and_two\stimulus7_8_R.jpg","right",1,7.98707899999999
"55","CP03a","Pair","Part1",28,"Female",8,"stimulus_part_one_and_two\stimulus8_7_L.jpg","left",1,6.54400329999999
"56","CP03a","Pair","Part1",28,"Female",9,"stimulus_part_one_and_two\stimulus91_28_R.jpg","right",1,17.6625310000004
"57","CP03a","Pair","Part3",28,"Female",1,"stimulus_part_three\stimulus93_31_L.jpg","left",1,11.3467330999997
"58","CP03a","Pair","Part3",28,"Female",2,"stimulus_part_three\stimulus94_1_L.jpg","left",1,13.5315876
"59","CP03a","Pair","Part3",28,"Female",3,"stimulus_part_three\stimulus95_2_L.jpg","left",1,16.0275535999999
"60","CP03a","Pair","Part3",28,"Female",4,"stimulus_part_three\stimulus96_10_R.jpg","left",0,8.53900490000024
"61","CP03b","Pair","Part3",28,"Male",1,"stimulus_part_three\stimulus93_31_L.jpg","right",0,5.25138519999973
"62","CP03b","Pair","Part3",28,"Male",2,"stimulus_part_three\stimulus94_1_L.jpg","right",0,11.6767166999998
"63","CP03b","Pair","Part3",28,"Male",3,"stimulus_part_three\stimulus95_2_L.jpg","left",1,10.6787138
"64","CP03b","Pair","Part3",28,"Male",4,"stimulus_part_three\stimulus96_10_R.jpg","left",0,7.75161260000004
"65","CP04a","Pair","Part1",21,"Male",1,"stimulus_part_one_and_two\stimulus1_5_L.jpg","right",0,34.0980703
"66","CP04a","Pair","Part1",21,"Male",2,"stimulus_part_one_and_two\stimulus2_6_R.jpg","right",1,160.6143134
"67","CP04a","Pair","Part1",21,"Male",3,"stimulus_part_one_and_two\stimulus3_5_L.jpg","left",1,31.8258747
"68","CP04a","Pair","Part1",21,"Male",4,"stimulus_part_one_and_two\stimulus4_7_L.jpg","left",1,23.6793508999997
"69","CP04a","Pair","Part1",21,"Male",5,"stimulus_part_one_and_two\stimulus5_6_R.jpg","right",1,36.4101124999997
"70","CP04a","Pair","Part1",21,"Male",6,"stimulus_part_one_and_two\stimulus6_8_R.jpg","right",1,41.7082024000001
"71","CP04a","Pair","Part1",21,"Male",7,"stimulus_part_one_and_two\stimulus7_8_R.jpg","right",1,12.7060758000002
"72","CP04a","Pair","Part1",21,"Male",8,"stimulus_part_one_and_two\stimulus8_7_L.jpg","left",1,7.20660889999999
"73","CP04a","Pair","Part1",21,"Male",9,"stimulus_part_one_and_two\stimulus91_28_R.jpg","right",1,28.8774295999997
"74","CP04a","Pair","Part3",21,"Male",1,"stimulus_part_three\stimulus93_31_L.jpg","left",1,9.73461339999994
"75","CP04a","Pair","Part3",21,"Male",2,"stimulus_part_three\stimulus94_1_L.jpg","right",0,13.4729170999999
"76","CP04a","Pair","Part3",21,"Male",3,"stimulus_part_three\stimulus95_2_L.jpg","left",1,14.9279050000005
"77","CP04a","Pair","Part3",21,"Male",4,"stimulus_part_three\stimulus96_10_R.jpg","left",0,6.97625619999963
"78","CP04b","Pair","Part3",21,"Female",1,"stimulus_part_three\stimulus93_31_L.jpg","right",0,41.6177528999997
"79","CP04b","Pair","Part3",21,"Female",2,"stimulus_part_three\stimulus94_1_L.jpg","left",1,9.09150179999961
"80","CP04b","Pair","Part3",21,"Female",3,"stimulus_part_three\stimulus95_2_L.jpg","left",1,4.08948009999949
"81","CP04b","Pair","Part3",21,"Female",4,"stimulus_part_three\stimulus96_10_R.jpg","left",0,4.41371879999861
"82","CP05a","Pair","Part1",24,"Female",1,"stimulus_part_one_and_two\stimulus1_5_L.jpg","left",1,22.2262579999997
"83","CP05a","Pair","Part1",24,"Female",2,"stimulus_part_one_and_two\stimulus2_6_R.jpg","right",1,18.7813838000002
"84","CP05a","Pair","Part1",24,"Female",3,"stimulus_part_one_and_two\stimulus3_5_L.jpg","left",1,33.0606362999997
"85","CP05a","Pair","Part1",24,"Female",4,"stimulus_part_one_and_two\stimulus4_7_L.jpg","left",1,12.6768518999997
"86","CP05a","Pair","Part1",24,"Female",5,"stimulus_part_one_and_two\stimulus5_6_R.jpg","right",1,21.3678766999992
"87","CP05a","Pair","Part1",24,"Female",6,"stimulus_part_one_and_two\stimulus6_8_R.jpg","right",1,49.3092651999996
"88","CP05a","Pair","Part1",24,"Female",7,"stimulus_part_one_and_two\stimulus7_8_R.jpg","right",1,9.60591340000065
"89","CP05a","Pair","Part1",24,"Female",8,"stimulus_part_one_and_two\stimulus8_7_L.jpg","left",1,6.74102589999984
"90","CP05a","Pair","Part1",24,"Female",9,"stimulus_part_one_and_two\stimulus91_28_R.jpg","left",0,31.2117915000008
"91","CP05a","Pair","Part3",24,"Female",1,"stimulus_part_three\stimulus93_31_L.jpg","right",0,30.1583235999997
"92","CP05a","Pair","Part3",24,"Female",2,"stimulus_part_three\stimulus94_1_L.jpg","left",1,23.9855090000001
"93","CP05a","Pair","Part3",24,"Female",3,"stimulus_part_three\stimulus95_2_L.jpg","left",1,13.2418790000002
"94","CP05a","Pair","Part3",24,"Female",4,"stimulus_part_three\stimulus96_10_R.jpg","right",1,12.5195403999996
"95","CP05b","Pair","Part3",22,"Female",1,"stimulus_part_three\stimulus93_31_L.jpg","right",0,67.0001494999997
"96","CP05b","Pair","Part3",22,"Female",2,"stimulus_part_three\stimulus94_1_L.jpg","left",1,51.5903104999998
"97","CP05b","Pair","Part3",22,"Female",3,"stimulus_part_three\stimulus95_2_L.jpg","left",1,19.7765591999996
"98","CP05b","Pair","Part3",22,"Female",4,"stimulus_part_three\stimulus96_10_R.jpg","right",1,31.1941624999999
"99","CP06a","Pair","Part1",21,"Male",1,"stimulus_part_one_and_two\stimulus1_5_L.jpg","left",1,12.7047889999994
"100","CP06a","Pair","Part1",21,"Male",2,"stimulus_part_one_and_two\stimulus2_6_R.jpg","right",1,8.22155029999885
"101","CP06a","Pair","Part1",21,"Male",3,"stimulus_part_one_and_two\stimulus3_5_L.jpg","left",1,9.49362260000089
"102","CP06a","Pair","Part1",21,"Male",4,"stimulus_part_one_and_two\stimulus4_7_L.jpg","left",1,7.78995690000011
"103","CP06a","Pair","Part1",21,"Male",5,"stimulus_part_one_and_two\stimulus5_6_R.jpg","right",1,5.4641732
"104","CP06a","Pair","Part1",21,"Male",6,"stimulus_part_one_and_two\stimulus6_8_R.jpg","right",1,6.6942358999986
"105","CP06a","Pair","Part1",21,"Male",7,"stimulus_part_one_and_two\stimulus7_8_R.jpg","right",1,5.37301999999909
"106","CP06a","Pair","Part1",21,"Male",8,"stimulus_part_one_and_two\stimulus8_7_L.jpg","left",1,5.31711820000055
"107","CP06a","Pair","Part1",21,"Male",9,"stimulus_part_one_and_two\stimulus91_28_R.jpg","right",1,11.2128587999996
"108","CP06a","Pair","Part3",21,"Male",1,"stimulus_part_three\stimulus93_31_L.jpg","left",1,29.7259730000005
"109","CP06a","Pair","Part3",21,"Male",2,"stimulus_part_three\stimulus94_1_L.jpg","left",1,12.0322198000013
"110","CP06a","Pair","Part3",21,"Male",3,"stimulus_part_three\stimulus95_2_L.jpg","right",0,10.193456500001
"111","CP06a","Pair","Part3",21,"Male",4,"stimulus_part_three\stimulus96_10_R.jpg","right",1,7.88696540000092
"112","CP06b","Pair","Part3",22,"Female",1,"stimulus_part_three\stimulus93_31_L.jpg","left",1,11.7631956999994
"113","CP06b","Pair","Part3",22,"Female",2,"stimulus_part_three\stimulus94_1_L.jpg","left",1,7.28059530000064
"114","CP06b","Pair","Part3",22,"Female",3,"stimulus_part_three\stimulus95_2_L.jpg","left",1,5.9852832000015
"115","CP06b","Pair","Part3",22,"Female",4,"stimulus_part_three\stimulus96_10_R.jpg","right",1,7.88934590000099
"116","CP07a","Pair","Part1",20,"Male",1,"stimulus_part_one_and_two\stimulus1_5_L.jpg","left",1,6.33850030000031
"117","CP07a","Pair","Part1",20,"Male",2,"stimulus_part_one_and_two\stimulus2_6_R.jpg","right",1,31.1022164000005
"118","CP07a","Pair","Part1",20,"Male",3,"stimulus_part_one_and_two\stimulus3_5_L.jpg","right",0,0.197743199998513
"119","CP07a","Pair","Part1",20,"Male",4,"stimulus_part_one_and_two\stimulus4_7_L.jpg","left",1,25.3416233999997
"120","CP07a","Pair","Part1",20,"Male",5,"stimulus_part_one_and_two\stimulus5_6_R.jpg","right",1,12.4878870000011
"121","CP07a","Pair","Part1",20,"Male",6,"stimulus_part_one_and_two\stimulus6_8_R.jpg","right",1,8.68610369999988
"122","CP07a","Pair","Part1",20,"Male",7,"stimulus_part_one_and_two\stimulus7_8_R.jpg","right",1,8.53448399999979
"123","CP07a","Pair","Part1",20,"Male",8,"stimulus_part_one_and_two\stimulus8_7_L.jpg","left",1,10.4468594999998
"124","CP07a","Pair","Part1",20,"Male",9,"stimulus_part_one_and_two\stimulus91_28_R.jpg","right",1,35.3415774999994
"125","CP07a","Pair","Part3",20,"Male",1,"stimulus_part_three\stimulus93_31_L.jpg","left",1,6.76741849999962
"126","CP07a","Pair","Part3",20,"Male",2,"stimulus_part_three\stimulus94_1_L.jpg","left",1,7.99200850000125
"127","CP07a","Pair","Part3",20,"Male",3,"stimulus_part_three\stimulus95_2_L.jpg","left",1,8.87353710000025
"128","CP07a","Pair","Part3",20,"Male",4,"stimulus_part_three\stimulus96_10_R.jpg","right",1,16.6790624999994
"129","CP07b","Pair","Part3",29,"Female",1,"stimulus_part_three\stimulus93_31_L.jpg","right",0,13.6795306999993
"130","CP07b","Pair","Part3",29,"Female",2,"stimulus_part_three\stimulus94_1_L.jpg","right",0,17.084802899999
"131","CP07b","Pair","Part3",29,"Female",3,"stimulus_part_three\stimulus95_2_L.jpg","right",0,23.7899585000014
"132","CP07b","Pair","Part3",29,"Female",4,"stimulus_part_three\stimulus96_10_R.jpg","right",1,17.1596571000009
"133","CP08a","Pair","Part1",20,"Male",1,"stimulus_part_one_and_two\stimulus1_5_L.jpg","left",1,14.5942027000019
"134","CP08a","Pair","Part1",20,"Male",2,"stimulus_part_one_and_two\stimulus2_6_R.jpg","right",1,4.78176590000294
"135","CP08a","Pair","Part1",20,"Male",3,"stimulus_part_one_and_two\stimulus3_5_L.jpg","left",1,4.66240220000327
"136","CP08a","Pair","Part1",20,"Male",4,"stimulus_part_one_and_two\stimulus4_7_L.jpg","left",1,4.20712379999895
"137","CP08a","Pair","Part1",20,"Male",5,"stimulus_part_one_and_two\stimulus5_6_R.jpg","right",1,5.98375769999984
"138","CP08a","Pair","Part1",20,"Male",6,"stimulus_part_one_and_two\stimulus6_8_R.jpg","right",1,3.98236429999815
"139","CP08a","Pair","Part1",20,"Male",7,"stimulus_part_one_and_two\stimulus7_8_R.jpg","right",1,5.18132749999859
"140","CP08a","Pair","Part1",20,"Male",8,"stimulus_part_one_and_two\stimulus8_7_L.jpg","left",1,4.01285160000043
"141","CP08a","Pair","Part1",20,"Male",9,"stimulus_part_one_and_two\stimulus91_28_R.jpg","right",1,16.9004074000004
"142","CP08a","Pair","Part3",20,"Male",1,"stimulus_part_three\stimulus93_31_L.jpg","left",1,12.6138146999983
"143","CP08a","Pair","Part3",20,"Male",2,"stimulus_part_three\stimulus94_1_L.jpg","right",0,8.53610289999779
"144","CP08a","Pair","Part3",20,"Male",3,"stimulus_part_three\stimulus95_2_L.jpg","right",0,19.0324882999994
"145","CP08a","Pair","Part3",20,"Male",4,"stimulus_part_three\stimulus96_10_R.jpg","right",1,10.1594342000026
"146","CP08b","Pair","Part3",23,"Male",1,"stimulus_part_three\stimulus93_31_L.jpg","right",0,9.3686495999973
"147","CP08b","Pair","Part3",23,"Male",2,"stimulus_part_three\stimulus94_1_L.jpg","right",0,9.10065529999702
"148","CP08b","Pair","Part3",23,"Male",3,"stimulus_part_three\stimulus95_2_L.jpg","left",1,20.3946166999995
"149","CP08b","Pair","Part3",23,"Male",4,"stimulus_part_three\stimulus96_10_R.jpg","left",0,7.9962388999993
"150","CP09a","Pair","Part1",24,"Female",1,"stimulus_part_one_and_two\stimulus1_5_L.jpg","left",1,71.8966922
"151","CP09a","Pair","Part1",24,"Female",2,"stimulus_part_one_and_two\stimulus2_6_R.jpg","right",1,103.1888031
"152","CP09a","Pair","Part1",24,"Female",3,"stimulus_part_one_and_two\stimulus3_5_L.jpg","right",0,97.531143799999
"153","CP09a","Pair","Part1",24,"Female",4,"stimulus_part_one_and_two\stimulus4_7_L.jpg","left",1,29.6280849999985
"154","CP09a","Pair","Part1",24,"Female",5,"stimulus_part_one_and_two\stimulus5_6_R.jpg","right",1,40.7272472000004
"155","CP09a","Pair","Part1",24,"Female",6,"stimulus_part_one_and_two\stimulus6_8_R.jpg","left",0,64.5324764999987
"156","CP09a","Pair","Part1",24,"Female",7,"stimulus_part_one_and_two\stimulus7_8_R.jpg","right",1,72.2118055999999
"157","CP09a","Pair","Part1",24,"Female",8,"stimulus_part_one_and_two\stimulus8_7_L.jpg","left",1,119.4529666
"158","CP09a","Pair","Part1",24,"Female",9,"stimulus_part_one_and_two\stimulus91_28_R.jpg","right",1,79.1312085000009
"159","CP09a","Pair","Part3",24,"Female",1,"stimulus_part_three\stimulus93_31_L.jpg","right",0,18.0313230000011
"160","CP09a","Pair","Part3",24,"Female",2,"stimulus_part_three\stimulus94_1_L.jpg","right",0,49.4891305000001
"161","CP09a","Pair","Part3",24,"Female",3,"stimulus_part_three\stimulus95_2_L.jpg","right",0,55.2728597000005
"162","CP09a","Pair","Part3",24,"Female",4,"stimulus_part_three\stimulus96_10_R.jpg","right",1,39.1981586000002
"163","CP09b","Pair","Part3",32,"Female",1,"stimulus_part_three\stimulus93_31_L.jpg","left",1,62.1683489999996
"164","CP09b","Pair","Part3",32,"Female",2,"stimulus_part_three\stimulus94_1_L.jpg","left",1,94.8667898999993
"165","CP09b","Pair","Part3",32,"Female",3,"stimulus_part_three\stimulus95_2_L.jpg","left",1,71.5892130000011
"166","CP09b","Pair","Part3",32,"Female",4,"stimulus_part_three\stimulus96_10_R.jpg","left",0,66.2141385000014
"167","CP10a","Pair","Part1",21,"Male",1,"stimulus_part_one_and_two\stimulus1_5_L.jpg","left",1,14.6416166999998
"168","CP10a","Pair","Part1",21,"Male",2,"stimulus_part_one_and_two\stimulus2_6_R.jpg","right",1,12.8457048
"169","CP10a","Pair","Part1",21,"Male",3,"stimulus_part_one_and_two\stimulus3_5_L.jpg","left",1,16.5669363000002
"170","CP10a","Pair","Part1",21,"Male",4,"stimulus_part_one_and_two\stimulus4_7_L.jpg","left",1,14.4664233000003
"171","CP10a","Pair","Part1",21,"Male",5,"stimulus_part_one_and_two\stimulus5_6_R.jpg","right",1,7.59406609999996
"172","CP10a","Pair","Part1",21,"Male",6,"stimulus_part_one_and_two\stimulus6_8_R.jpg","right",1,3.80406570000014
"173","CP10a","Pair","Part1",21,"Male",7,"stimulus_part_one_and_two\stimulus7_8_R.jpg","right",1,4.72750219999989
"174","CP10a","Pair","Part1",21,"Male",8,"stimulus_part_one_and_two\stimulus8_7_L.jpg","left",1,3.52017669999987
"175","CP10a","Pair","Part1",21,"Male",9,"stimulus_part_one_and_two\stimulus91_28_R.jpg","right",1,21.2843911999998
"176","CP10a","Pair","Part3",21,"Male",1,"stimulus_part_three\stimulus93_31_L.jpg","left",1,7.01116749999983
"177","CP10a","Pair","Part3",21,"Male",2,"stimulus_part_three\stimulus94_1_L.jpg","right",0,15.8586696000002
"178","CP10a","Pair","Part3",21,"Male",3,"stimulus_part_three\stimulus95_2_L.jpg","left",1,24.7560837999999
"179","CP10a","Pair","Part3",21,"Male",4,"stimulus_part_three\stimulus96_10_R.jpg","right",1,17.8977311999997
"180","CP10b","Pair","Part3",27,"Male",1,"stimulus_part_three\stimulus93_31_L.jpg","left",1,9.07003070000019
"181","CP10b","Pair","Part3",27,"Male",2,"stimulus_part_three\stimulus94_1_L.jpg","right",0,6.54076340000029
"182","CP10b","Pair","Part3",27,"Male",3,"stimulus_part_three\stimulus95_2_L.jpg","left",1,9.72604879999972
"183","CP10b","Pair","Part3",27,"Male",4,"stimulus_part_three\stimulus96_10_R.jpg","right",1,9.57541960000026
"184","FP01a","FlexPairA","Part1",21,"Female",1,"stimulus_part_one_and_two\stimulus1_5_L.jpg","left",1,2.68212330000097
"185","FP01a","FlexPairA","Part1",21,"Female",2,"stimulus_part_one_and_two\stimulus2_6_R.jpg","right",1,4.01081239999985
"186","FP01a","FlexPairA","Part1",21,"Female",3,"stimulus_part_one_and_two\stimulus3_5_L.jpg","right",0,3.5303399000004
"187","FP01a","FlexPairA","Part1",21,"Female",4,"stimulus_part_one_and_two\stimulus4_7_L.jpg","left",1,11.1889747999994
"188","FP01a","FlexPairA","Part1",21,"Female",5,"stimulus_part_one_and_two\stimulus5_6_R.jpg","right",1,13.3035896000001
"189","FP01a","FlexPairA","Part1",21,"Female",6,"stimulus_part_one_and_two\stimulus6_8_R.jpg","right",1,18.4289203000008
"190","FP01a","FlexPairA","Part1",21,"Female",7,"stimulus_part_one_and_two\stimulus7_8_R.jpg","left",0,9.48485489999985
"191","FP01a","FlexPairA","Part1",21,"Female",8,"stimulus_part_one_and_two\stimulus8_7_L.jpg","left",1,10.8779718000005
"192","FP01a","FlexPairA","Part1",21,"Female",9,"stimulus_part_one_and_two\stimulus91_28_R.jpg","right",1,23.6031634999999
"193","FP01a","FlexPairA","Part3",21,"Female",1,"stimulus_part_three\stimulus93_31_L.jpg","left",1,15.3411160000014
"194","FP01a","FlexPairA","Part3",21,"Female",2,"stimulus_part_three\stimulus94_1_L.jpg","left",1,29.6626524999992
"195","FP01a","FlexPairA","Part3",21,"Female",3,"stimulus_part_three\stimulus95_2_L.jpg","right",0,43.2555945999993
"196","FP01a","FlexPairA","Part3",21,"Female",4,"stimulus_part_three\stimulus96_10_R.jpg","right",1,34.4612814000011
"197","FP01b","FlexPairB","Part1",23,"Male",1,"stimulus_part_one\stimulus1_5_L.jpg","left",1,35.5131522000011
"198","FP01b","FlexPairB","Part1",23,"Male",2,"stimulus_part_one\stimulus2_6_R.jpg","right",1,16.7146911
"199","FP01b","FlexPairB","Part1",23,"Male",3,"stimulus_part_one\stimulus3_5_L.jpg","left",1,8.90761969999949
"200","FP01b","FlexPairB","Part1",23,"Male",4,"stimulus_part_one\stimulus4_7_L.jpg","left",1,11.5979958999997
"201","FP01b","FlexPairB","Part3",23,"Male",1,"stimulus_part_three\stimulus93_31_L.jpg","left",1,12.875154899999
"202","FP01b","FlexPairB","Part3",23,"Male",2,"stimulus_part_three\stimulus94_1_L.jpg","right",0,15.3784378
"203","FP01b","FlexPairB","Part3",23,"Male",3,"stimulus_part_three\stimulus95_2_L.jpg","left",1,29.4736440999986
"204","FP01b","FlexPairB","Part3",23,"Male",4,"stimulus_part_three\stimulus96_10_R.jpg","right",1,9.25921299999936
"205","FP02a","FlexPairA","Part1",24,"Female",1,"stimulus_part_one_and_two\stimulus1_5_L.jpg","right",0,2.1621314999993
"206","FP02a","FlexPairA","Part1",24,"Female",2,"stimulus_part_one_and_two\stimulus2_6_R.jpg","left",0,4.63872330000049
"207","FP02a","FlexPairA","Part1",24,"Female",3,"stimulus_part_one_and_two\stimulus3_5_L.jpg","right",0,10.0065699000006
"208","FP02a","FlexPairA","Part1",24,"Female",4,"stimulus_part_one_and_two\stimulus4_7_L.jpg","left",1,7.26234819999991
"209","FP02a","FlexPairA","Part1",24,"Female",5,"stimulus_part_one_and_two\stimulus5_6_R.jpg","left",0,74.3999479999984
"210","FP02a","FlexPairA","Part1",24,"Female",6,"stimulus_part_one_and_two\stimulus6_8_R.jpg","right",1,110.500334800001
"211","FP02a","FlexPairA","Part1",24,"Female",7,"stimulus_part_one_and_two\stimulus7_8_R.jpg","right",1,24.7805423999998
"212","FP02a","FlexPairA","Part1",24,"Female",8,"stimulus_part_one_and_two\stimulus8_7_L.jpg","left",1,12.6707735
"213","FP02a","FlexPairA","Part1",24,"Female",9,"stimulus_part_one_and_two\stimulus91_28_R.jpg","right",1,18.0278698000002
"214","FP02a","FlexPairA","Part3",24,"Female",1,"stimulus_part_three\stimulus93_31_L.jpg","left",1,17.7114779999993
"215","FP02a","FlexPairA","Part3",24,"Female",2,"stimulus_part_three\stimulus94_1_L.jpg","right",0,13.9200356000001
"216","FP02a","FlexPairA","Part3",24,"Female",3,"stimulus_part_three\stimulus95_2_L.jpg","left",1,16.2405595
"217","FP02a","FlexPairA","Part3",24,"Female",4,"stimulus_part_three\stimulus96_10_R.jpg","right",1,10.1586340000013
"218","FP02b","FlexPairB","Part1",26,"Female",1,"stimulus_part_one\stimulus1_5_L.jpg","right",0,5.24373880000007
"219","FP02b","FlexPairB","Part1",26,"Female",2,"stimulus_part_one\stimulus2_6_R.jpg","left",0,3.24775530000011
"220","FP02b","FlexPairB","Part1",26,"Female",3,"stimulus_part_one\stimulus3_5_L.jpg","right",0,17.4191329
"221","FP02b","FlexPairB","Part1",26,"Female",4,"stimulus_part_one\stimulus4_7_L.jpg","right",0,3.09712919999993
"222","FP02b","FlexPairB","Part3",26,"Female",1,"stimulus_part_three\stimulus93_31_L.jpg","left",1,26.8119629999997
"223","FP02b","FlexPairB","Part3",26,"Female",2,"stimulus_part_three\stimulus94_1_L.jpg","right",0,17.8148922
"224","FP02b","FlexPairB","Part3",26,"Female",3,"stimulus_part_three\stimulus95_2_L.jpg","left",1,55.6425125000001
"225","FP02b","FlexPairB","Part3",26,"Female",4,"stimulus_part_three\stimulus96_10_R.jpg","right",1,13.0255983000002
"226","FP03a","FlexPairA","Part1",22,"Female",1,"stimulus_part_one_and_two\stimulus1_5_L.jpg","left",1,13.4512072999996
"227","FP03a","FlexPairA","Part1",22,"Female",2,"stimulus_part_one_and_two\stimulus2_6_R.jpg","right",1,9.62175810000008
"228","FP03a","FlexPairA","Part1",22,"Female",3,"stimulus_part_one_and_two\stimulus3_5_L.jpg","left",1,5.85492810000051
"229","FP03a","FlexPairA","Part1",22,"Female",4,"stimulus_part_one_and_two\stimulus4_7_L.jpg","left",1,7.07924279999952
"230","FP03a","FlexPairA","Part1",22,"Female",5,"stimulus_part_one_and_two\stimulus5_6_R.jpg","right",1,25.6320163
"231","FP03a","FlexPairA","Part1",22,"Female",6,"stimulus_part_one_and_two\stimulus6_8_R.jpg","right",1,11.2540223999995
"232","FP03a","FlexPairA","Part1",22,"Female",7,"stimulus_part_one_and_two\stimulus7_8_R.jpg","right",1,10.6133084000003
"233","FP03a","FlexPairA","Part1",22,"Female",8,"stimulus_part_one_and_two\stimulus8_7_L.jpg","left",1,9.97398590000012
"234","FP03a","FlexPairA","Part1",22,"Female",9,"stimulus_part_one_and_two\stimulus91_28_R.jpg","right",1,21.5727061000007
"235","FP03a","FlexPairA","Part3",22,"Female",1,"stimulus_part_three\stimulus93_31_L.jpg","left",1,7.7977022999994
"236","FP03a","FlexPairA","Part3",22,"Female",2,"stimulus_part_three\stimulus94_1_L.jpg","right",0,9.16098679999959
"237","FP03a","FlexPairA","Part3",22,"Female",3,"stimulus_part_three\stimulus95_2_L.jpg","left",1,28.6797243999999
"238","FP03a","FlexPairA","Part3",22,"Female",4,"stimulus_part_three\stimulus96_10_R.jpg","left",0,10.8720958000004
"239","FP03b","FlexPairB","Part1",22,"Female",1,"stimulus_part_one\stimulus1_5_L.jpg","right",0,3.56364040000062
"240","FP03b","FlexPairB","Part1",22,"Female",2,"stimulus_part_one\stimulus2_6_R.jpg","right",1,36.8827858000004
"241","FP03b","FlexPairB","Part1",22,"Female",3,"stimulus_part_one\stimulus3_5_L.jpg","left",1,9.74117710000064
"242","FP03b","FlexPairB","Part1",22,"Female",4,"stimulus_part_one\stimulus4_7_L.jpg","left",1,20.6776866999999
"243","FP03b","FlexPairB","Part3",22,"Female",1,"stimulus_part_three\stimulus93_31_L.jpg","right",0,21.1108146000006
"244","FP03b","FlexPairB","Part3",22,"Female",2,"stimulus_part_three\stimulus94_1_L.jpg","left",1,20.6362191000007
"245","FP03b","FlexPairB","Part3",22,"Female",3,"stimulus_part_three\stimulus95_2_L.jpg","left",1,33.5207980000005
"246","FP03b","FlexPairB","Part3",22,"Female",4,"stimulus_part_three\stimulus96_10_R.jpg","right",1,22.7516618
"247","FP04a","FlexPairA","Part1",21,"Female",1,"stimulus_part_one_and_two\stimulus1_5_L.jpg","right",0,3.12066790000017
"248","FP04a","FlexPairA","Part1",21,"Female",2,"stimulus_part_one_and_two\stimulus2_6_R.jpg","left",0,5.41770079999969
"249","FP04a","FlexPairA","Part1",21,"Female",3,"stimulus_part_one_and_two\stimulus3_5_L.jpg","left",1,80.0565164
"250","FP04a","FlexPairA","Part1",21,"Female",4,"stimulus_part_one_and_two\stimulus4_7_L.jpg","left",1,86.3894924000001
"251","FP04a","FlexPairA","Part1",21,"Female",5,"stimulus_part_one_and_two\stimulus5_6_R.jpg","right",1,24.3211879
"252","FP04a","FlexPairA","Part1",21,"Female",6,"stimulus_part_one_and_two\stimulus6_8_R.jpg","right",1,12.3827951000003
"253","FP04a","FlexPairA","Part1",21,"Female",7,"stimulus_part_one_and_two\stimulus7_8_R.jpg","right",1,14.6712625
"254","FP04a","FlexPairA","Part1",21,"Female",8,"stimulus_part_one_and_two\stimulus8_7_L.jpg","left",1,22.0177103999999
"255","FP04a","FlexPairA","Part1",21,"Female",9,"stimulus_part_one_and_two\stimulus91_28_R.jpg","right",1,27.4973540000001
"256","FP04a","FlexPairA","Part3",21,"Female",1,"stimulus_part_three\stimulus93_31_L.jpg","left",1,28.3901009000001
"257","FP04a","FlexPairA","Part3",21,"Female",2,"stimulus_part_three\stimulus94_1_L.jpg","left",1,9.96528480000006
"258","FP04a","FlexPairA","Part3",21,"Female",3,"stimulus_part_three\stimulus95_2_L.jpg","left",1,19.5496821000002
"259","FP04a","FlexPairA","Part3",21,"Female",4,"stimulus_part_three\stimulus96_10_R.jpg","right",1,15.5655501000001
"260","FP04b","FlexPairB","Part1",25,"Female",1,"stimulus_part_one\stimulus1_5_L.jpg","right",0,1.61304279999968
"261","FP04b","FlexPairB","Part1",25,"Female",2,"stimulus_part_one\stimulus2_6_R.jpg","right",1,66.3376956000002
"262","FP04b","FlexPairB","Part1",25,"Female",3,"stimulus_part_one\stimulus3_5_L.jpg","left",1,19.6822807999997
"263","FP04b","FlexPairB","Part1",25,"Female",4,"stimulus_part_one\stimulus4_7_L.jpg","left",1,22.9178781000001
"264","FP04b","FlexPairB","Part3",25,"Female",1,"stimulus_part_three\stimulus93_31_L.jpg","left",1,14.6848479
"265","FP04b","FlexPairB","Part3",25,"Female",2,"stimulus_part_three\stimulus94_1_L.jpg","left",1,47.5470759
"266","FP04b","FlexPairB","Part3",25,"Female",3,"stimulus_part_three\stimulus95_2_L.jpg","left",1,23.3234739
"267","FP04b","FlexPairB","Part3",25,"Female",4,"stimulus_part_three\stimulus96_10_R.jpg","right",1,49.2613514999998
"268","FP05a","FlexPairA","Part1",24,"Male",1,"stimulus_part_one_and_two\stimulus1_5_L.jpg","left",1,3.21780149999995
"269","FP05a","FlexPairA","Part1",24,"Male",2,"stimulus_part_one_and_two\stimulus2_6_R.jpg","left",0,2.69345869999961
"270","FP05a","FlexPairA","Part1",24,"Male",3,"stimulus_part_one_and_two\stimulus3_5_L.jpg","left",1,7.66166609999982
"271","FP05a","FlexPairA","Part1",24,"Male",4,"stimulus_part_one_and_two\stimulus4_7_L.jpg","right",0,25.5808406999995
"272","FP05a","FlexPairA","Part1",24,"Male",5,"stimulus_part_one_and_two\stimulus5_6_R.jpg","right",1,49.7993134999997
"273","FP05a","FlexPairA","Part1",24,"Male",6,"stimulus_part_one_and_two\stimulus6_8_R.jpg","right",1,36.2203103000002
"274","FP05a","FlexPairA","Part1",24,"Male",7,"stimulus_part_one_and_two\stimulus7_8_R.jpg","right",1,17.9962090999998
"275","FP05a","FlexPairA","Part1",24,"Male",8,"stimulus_part_one_and_two\stimulus8_7_L.jpg","left",1,21.9101138000005
"276","FP05a","FlexPairA","Part1",24,"Male",9,"stimulus_part_one_and_two\stimulus91_28_R.jpg","right",1,19.6280563999999
"277","FP05a","FlexPairA","Part3",24,"Male",1,"stimulus_part_three\stimulus93_31_L.jpg","right",0,8.24376550000034
"278","FP05a","FlexPairA","Part3",24,"Male",2,"stimulus_part_three\stimulus94_1_L.jpg","left",1,11.5521891000008
"279","FP05a","FlexPairA","Part3",24,"Male",3,"stimulus_part_three\stimulus95_2_L.jpg","left",1,17.7852950999995
"280","FP05a","FlexPairA","Part3",24,"Male",4,"stimulus_part_three\stimulus96_10_R.jpg","right",1,12.9491207000001
"281","FP05b","FlexPairB","Part1",24,"Female",1,"stimulus_part_one\stimulus1_5_L.jpg","left",1,10.8625959000001
"282","FP05b","FlexPairB","Part1",24,"Female",2,"stimulus_part_one\stimulus2_6_R.jpg","right",1,18.8419093000002
"283","FP05b","FlexPairB","Part1",24,"Female",3,"stimulus_part_one\stimulus3_5_L.jpg","left",1,10.0133365000002
"284","FP05b","FlexPairB","Part1",24,"Female",4,"stimulus_part_one\stimulus4_7_L.jpg","left",1,0.0355307999998331
"285","FP05b","FlexPairB","Part3",24,"Female",1,"stimulus_part_three\stimulus93_31_L.jpg","left",1,21.8950785999996
"286","FP05b","FlexPairB","Part3",24,"Female",2,"stimulus_part_three\stimulus94_1_L.jpg","left",1,14.3158958000004
"287","FP05b","FlexPairB","Part3",24,"Female",3,"stimulus_part_three\stimulus95_2_L.jpg","left",1,19.5218969000007
"288","FP05b","FlexPairB","Part3",24,"Female",4,"stimulus_part_three\stimulus96_10_R.jpg","left",0,11.3275707000003
"289","FP06a","FlexPairA","Part1",25,"Female",1,"stimulus_part_one_and_two\stimulus1_5_L.jpg","left",1,7.17850799999997
"290","FP06a","FlexPairA","Part1",25,"Female",2,"stimulus_part_one_and_two\stimulus2_6_R.jpg","right",1,11.8610234000007
"291","FP06a","FlexPairA","Part1",25,"Female",3,"stimulus_part_one_and_two\stimulus3_5_L.jpg","left",1,8.23014419999981
"292","FP06a","FlexPairA","Part1",25,"Female",4,"stimulus_part_one_and_two\stimulus4_7_L.jpg","left",1,6.48552440000003
"293","FP06a","FlexPairA","Part1",25,"Female",5,"stimulus_part_one_and_two\stimulus5_6_R.jpg","right",1,140.5745171
"294","FP06a","FlexPairA","Part1",25,"Female",6,"stimulus_part_one_and_two\stimulus6_8_R.jpg","right",1,6.46125480000046
"295","FP06a","FlexPairA","Part1",25,"Female",7,"stimulus_part_one_and_two\stimulus7_8_R.jpg","right",1,3.94100009999966
"296","FP06a","FlexPairA","Part1",25,"Female",8,"stimulus_part_one_and_two\stimulus8_7_L.jpg","left",1,46.2622221000001
"297","FP06a","FlexPairA","Part1",25,"Female",9,"stimulus_part_one_and_two\stimulus91_28_R.jpg","right",1,31.5795602000017
"298","FP06a","FlexPairA","Part3",25,"Male",1,"stimulus_part_three\stimulus93_31_L.jpg","right",0,10.0470829000005
"299","FP06a","FlexPairA","Part3",25,"Male",2,"stimulus_part_three\stimulus94_1_L.jpg","right",0,20.4004036000006
"300","FP06a","FlexPairA","Part3",25,"Male",3,"stimulus_part_three\stimulus95_2_L.jpg","left",1,27.9047858000013
"301","FP06a","FlexPairA","Part3",25,"Male",4,"stimulus_part_three\stimulus96_10_R.jpg","right",1,42.9102535000002
"302","FP06b","FlexPairB","Part1",64,"Male",1,"stimulus_part_one\stimulus1_5_L.jpg","right",0,7.93327070000032
"303","FP06b","FlexPairB","Part1",64,"Male",2,"stimulus_part_one\stimulus2_6_R.jpg","left",0,0.829965900000389
"304","FP06b","FlexPairB","Part1",64,"Male",3,"stimulus_part_one\stimulus3_5_L.jpg","left",1,8.95377959999951
"305","FP06b","FlexPairB","Part1",64,"Male",4,"stimulus_part_one\stimulus4_7_L.jpg","left",1,29.6744001999996
"306","FP06b","FlexPairB","Part3",64,"Male",1,"stimulus_part_three\stimulus93_31_L.jpg","right",0,5.92401270000119
"307","FP06b","FlexPairB","Part3",64,"Male",2,"stimulus_part_three\stimulus94_1_L.jpg","right",0,17.2251941000013
"308","FP06b","FlexPairB","Part3",64,"Male",3,"stimulus_part_three\stimulus95_2_L.jpg","left",1,17.5705254999993
"309","FP06b","FlexPairB","Part3",64,"Male",4,"stimulus_part_three\stimulus96_10_R.jpg","left",0,14.4406887000005
"310","FP07a","FlexPairA","Part1",32,"Male",1,"stimulus_part_one_and_two\stimulus1_5_L.jpg","left",1,17.3230349000005
"311","FP07a","FlexPairA","Part1",32,"Male",2,"stimulus_part_one_and_two\stimulus2_6_R.jpg","right",1,28.7965306999995
"312","FP07a","FlexPairA","Part1",32,"Male",3,"stimulus_part_one_and_two\stimulus3_5_L.jpg","left",1,42.5655772
"313","FP07a","FlexPairA","Part1",32,"Male",4,"stimulus_part_one_and_two\stimulus4_7_L.jpg","right",0,61.284533
"314","FP07a","FlexPairA","Part1",32,"Male",5,"stimulus_part_one_and_two\stimulus5_6_R.jpg","right",1,77.6320997000003
"315","FP07a","FlexPairA","Part1",32,"Male",6,"stimulus_part_one_and_two\stimulus6_8_R.jpg","right",1,30.7091988000002
"316","FP07a","FlexPairA","Part1",32,"Male",7,"stimulus_part_one_and_two\stimulus7_8_R.jpg","right",1,24.1259203999998
"317","FP07a","FlexPairA","Part1",32,"Male",8,"stimulus_part_one_and_two\stimulus8_7_L.jpg","left",1,4.68583699999999
"318","FP07a","FlexPairA","Part1",32,"Male",9,"stimulus_part_one_and_two\stimulus91_28_R.jpg","left",0,29.8608986999998
"319","FP07a","FlexPairA","Part3",32,"Male",1,"stimulus_part_three\stimulus93_31_L.jpg","right",0,22.1628285000006
"320","FP07a","FlexPairA","Part3",32,"Male",2,"stimulus_part_three\stimulus94_1_L.jpg","left",1,37.2914371000006
"321","FP07a","FlexPairA","Part3",32,"Male",3,"stimulus_part_three\stimulus95_2_L.jpg","left",1,36.8272815
"322","FP07a","FlexPairA","Part3",32,"Male",4,"stimulus_part_three\stimulus96_10_R.jpg","right",1,45.3510665000003
"323","FP07b","FlexPairB","Part1",23,"Male",1,"stimulus_part_one\stimulus1_5_L.jpg","left",1,39.6374815999998
"324","FP07b","FlexPairB","Part1",23,"Male",2,"stimulus_part_one\stimulus2_6_R.jpg","right",1,33.6736586999996
"325","FP07b","FlexPairB","Part1",23,"Male",3,"stimulus_part_one\stimulus3_5_L.jpg","left",1,29.2207045000005
"326","FP07b","FlexPairB","Part1",23,"Male",4,"stimulus_part_one\stimulus4_7_L.jpg","left",1,58.2503997000003
"327","FP07b","FlexPairB","Part3",23,"Male",1,"stimulus_part_three\stimulus93_31_L.jpg","left",1,18.7236282000003
"328","FP07b","FlexPairB","Part3",23,"Male",2,"stimulus_part_three\stimulus94_1_L.jpg","right",0,30.3546421000001
"329","FP07b","FlexPairB","Part3",23,"Male",3,"stimulus_part_three\stimulus95_2_L.jpg","left",1,46.0852348999997
"330","FP07b","FlexPairB","Part3",23,"Male",4,"stimulus_part_three\stimulus96_10_R.jpg","right",1,49.4957856000001
"331","FP08a","FlexPairA","Part1",24,"Male",1,"stimulus_part_one_and_two\stimulus1_5_L.jpg","left",1,1.76208960000076
"332","FP08a","FlexPairA","Part1",24,"Male",2,"stimulus_part_one_and_two\stimulus2_6_R.jpg","right",1,6.25428579999971
"333","FP08a","FlexPairA","Part1",24,"Male",3,"stimulus_part_one_and_two\stimulus3_5_L.jpg","right",0,8.51884690000043
"334","FP08a","FlexPairA","Part1",24,"Male",4,"stimulus_part_one_and_two\stimulus4_7_L.jpg","right",0,14.0458940000008
"335","FP08a","FlexPairA","Part1",24,"Male",5,"stimulus_part_one_and_two\stimulus5_6_R.jpg","left",0,13.6398427999993
"336","FP08a","FlexPairA","Part1",24,"Male",6,"stimulus_part_one_and_two\stimulus6_8_R.jpg","left",0,43.6857748999992
"337","FP08a","FlexPairA","Part1",24,"Male",7,"stimulus_part_one_and_two\stimulus7_8_R.jpg","right",1,56.4225439000002
"338","FP08a","FlexPairA","Part1",24,"Male",8,"stimulus_part_one_and_two\stimulus8_7_L.jpg","left",1,86.254021499999
"339","FP08a","FlexPairA","Part1",24,"Male",9,"stimulus_part_one_and_two\stimulus91_28_R.jpg","left",0,29.8198154000002
"340","FP08a","FlexPairA","Part3",24,"Male",1,"stimulus_part_three\stimulus93_31_L.jpg","left",1,19.3583424000008
"341","FP08a","FlexPairA","Part3",24,"Male",2,"stimulus_part_three\stimulus94_1_L.jpg","left",1,17.4637985000008
"342","FP08a","FlexPairA","Part3",24,"Male",3,"stimulus_part_three\stimulus95_2_L.jpg","left",1,18.1366538000002
"343","FP08a","FlexPairA","Part3",24,"Male",4,"stimulus_part_three\stimulus96_10_R.jpg","left",0,16.6162393000013
"344","FP08b","FlexPairB","Part1",25,"Female",1,"stimulus_part_one\stimulus1_5_L.jpg","left",1,8.09191950000059
"345","FP08b","FlexPairB","Part1",25,"Female",2,"stimulus_part_one\stimulus2_6_R.jpg","left",0,9.25403809999989
"346","FP08b","FlexPairB","Part1",25,"Female",3,"stimulus_part_one\stimulus3_5_L.jpg","left",1,9.00138960000004
"347","FP08b","FlexPairB","Part1",25,"Female",4,"stimulus_part_one\stimulus4_7_L.jpg","left",1,7.69602139999915
"348","FP08b","FlexPairB","Part3",25,"Female",1,"stimulus_part_three\stimulus93_31_L.jpg","right",0,31.0306505999997
"349","FP08b","FlexPairB","Part3",25,"Female",2,"stimulus_part_three\stimulus94_1_L.jpg","right",0,26.6006813000004
"350","FP08b","FlexPairB","Part3",25,"Female",3,"stimulus_part_three\stimulus95_2_L.jpg","right",0,27.2787494999993
"351","FP08b","FlexPairB","Part3",25,"Female",4,"stimulus_part_three\stimulus96_10_R.jpg","right",1,48.0461348000008
"352","FP09a","FlexPairA","Part1",25,"Male",1,"stimulus_part_one_and_two\stimulus1_5_L.jpg","left",1,122.8260561
"353","FP09a","FlexPairA","Part1",25,"Male",2,"stimulus_part_one_and_two\stimulus2_6_R.jpg","right",1,13.5268834000003
"354","FP09a","FlexPairA","Part1",25,"Male",3,"stimulus_part_one_and_two\stimulus3_5_L.jpg","left",1,10.2079751000001
"355","FP09a","FlexPairA","Part1",25,"Male",4,"stimulus_part_one_and_two\stimulus4_7_L.jpg","left",1,10.0254055
"356","FP09a","FlexPairA","Part1",25,"Male",5,"stimulus_part_one_and_two\stimulus5_6_R.jpg","right",1,12.8734942999999
"357","FP09a","FlexPairA","Part1",25,"Male",6,"stimulus_part_one_and_two\stimulus6_8_R.jpg","right",1,9.57102650000024
"358","FP09a","FlexPairA","Part1",25,"Male",7,"stimulus_part_one_and_two\stimulus7_8_R.jpg","right",1,13.0692805000003
"359","FP09a","FlexPairA","Part1",25,"Male",8,"stimulus_part_one_and_two\stimulus8_7_L.jpg","left",1,6.5056883000002
"360","FP09a","FlexPairA","Part1",25,"Male",9,"stimulus_part_one_and_two\stimulus91_28_R.jpg","right",1,324.1786126
"361","FP09a","FlexPairA","Part3",25,"Male",1,"stimulus_part_three\stimulus93_31_L.jpg","left",1,20.9388262000002
"362","FP09a","FlexPairA","Part3",25,"Male",2,"stimulus_part_three\stimulus94_1_L.jpg","left",1,57.9097580999996
"363","FP09a","FlexPairA","Part3",25,"Male",3,"stimulus_part_three\stimulus95_2_L.jpg","left",1,39.5378575000004
"364","FP09a","FlexPairA","Part3",25,"Male",4,"stimulus_part_three\stimulus96_10_R.jpg","right",1,31.5361455000002
"365","FP09b","FlexPairB","Part1",33,"Male",1,"stimulus_part_one\stimulus1_5_L.jpg","right",0,2.59745479999992
"366","FP09b","FlexPairB","Part1",33,"Male",2,"stimulus_part_one\stimulus2_6_R.jpg","left",0,15.235283
"367","FP09b","FlexPairB","Part1",33,"Male",3,"stimulus_part_one\stimulus3_5_L.jpg","right",0,40.2470947000002
"368","FP09b","FlexPairB","Part1",33,"Male",4,"stimulus_part_one\stimulus4_7_L.jpg","left",1,88.0514061000003
"369","FP09b","FlexPairB","Part3",33,"Male",1,"stimulus_part_three\stimulus93_31_L.jpg","right",0,89.1267654000003
"370","FP09b","FlexPairB","Part3",33,"Male",2,"stimulus_part_three\stimulus94_1_L.jpg","right",0,125.0625068
"371","FP09b","FlexPairB","Part3",33,"Male",3,"stimulus_part_three\stimulus95_2_L.jpg","right",0,136.3264664
"372","FP09b","FlexPairB","Part3",33,"Male",4,"stimulus_part_three\stimulus96_10_R.jpg","right",1,161.4006092
"373","FP10b","FlexPairB","Part1",22,"Male",1,"stimulus_part_one\stimulus1_5_L.jpg","left",1,53.7294466000003
"374","FP10b","FlexPairB","Part1",22,"Male",2,"stimulus_part_one\stimulus2_6_R.jpg","right",1,11.1067827000006
"375","FP10b","FlexPairB","Part1",22,"Male",3,"stimulus_part_one\stimulus3_5_L.jpg","left",1,21.6440650000004
"376","FP10b","FlexPairB","Part1",22,"Male",4,"stimulus_part_one\stimulus4_7_L.jpg","right",0,11.7768858999989
"377","FP10b","FlexPairB","Part3",22,"Male",1,"stimulus_part_three\stimulus93_31_L.jpg","left",1,14.1438658999996
"378","FP10b","FlexPairB","Part3",22,"Male",2,"stimulus_part_three\stimulus94_1_L.jpg","left",1,13.9938431999999
"379","FP10b","FlexPairB","Part3",22,"Male",3,"stimulus_part_three\stimulus95_2_L.jpg","left",1,20.8705448000001
"380","FP10b","FlexPairB","Part3",22,"Male",4,"stimulus_part_three\stimulus96_10_R.jpg","right",1,47.6257105000004
"381","S01","Single","Part1",23,"Female",1,"stimulus_part_one_and_two\stimulus1_5_L.jpg","right",0,11.1059925999998
"382","S01","Single","Part1",23,"Female",2,"stimulus_part_one_and_two\stimulus2_6_R.jpg","right",1,50.1392474000004
"383","S01","Single","Part1",23,"Female",3,"stimulus_part_one_and_two\stimulus3_5_L.jpg","left",1,13.5797108999996
"384","S01","Single","Part1",23,"Female",4,"stimulus_part_one_and_two\stimulus4_7_L.jpg","left",1,15.6446744000004
"385","S01","Single","Part1",23,"Female",5,"stimulus_part_one_and_two\stimulus5_6_R.jpg","right",1,12.5914527000004
"386","S01","Single","Part1",23,"Female",6,"stimulus_part_one_and_two\stimulus6_8_R.jpg","left",0,9.34737010000026
"387","S01","Single","Part1",23,"Female",7,"stimulus_part_one_and_two\stimulus7_8_R.jpg","right",1,24.7389908999994
"388","S01","Single","Part1",23,"Female",8,"stimulus_part_one_and_two\stimulus8_7_L.jpg","left",1,10.6455683999993
"389","S01","Single","Part1",23,"Female",9,"stimulus_part_one_and_two\stimulus91_28_R.jpg","right",1,31.8038270999987
"390","S01","Single","Part3",23,"Female",1,"stimulus_part_three\stimulus93_31_L.jpg","left",1,24.7403575999997
"391","S01","Single","Part3",23,"Female",2,"stimulus_part_three\stimulus94_1_L.jpg","left",1,18.8317463999992
"392","S01","Single","Part3",23,"Female",3,"stimulus_part_three\stimulus95_2_L.jpg","left",1,15.0315842999989
"393","S01","Single","Part3",23,"Female",4,"stimulus_part_three\stimulus96_10_R.jpg","right",1,20.773921699998
"394","S02","Single","Part1",24,"Male",1,"stimulus_part_one_and_two\stimulus1_5_L.jpg","right",0,1.23901890000002
"395","S02","Single","Part1",24,"Male",2,"stimulus_part_one_and_two\stimulus2_6_R.jpg","right",1,8.65549699999997
"396","S02","Single","Part1",24,"Male",3,"stimulus_part_one_and_two\stimulus3_5_L.jpg","left",1,10.7946393000001
"397","S02","Single","Part1",24,"Male",4,"stimulus_part_one_and_two\stimulus4_7_L.jpg","left",1,7.20276469999999
"398","S02","Single","Part1",24,"Male",5,"stimulus_part_one_and_two\stimulus5_6_R.jpg","right",1,5.01642330000004
"399","S02","Single","Part1",24,"Male",6,"stimulus_part_one_and_two\stimulus6_8_R.jpg","right",1,15.1479313999999
"400","S02","Single","Part1",24,"Male",7,"stimulus_part_one_and_two\stimulus7_8_R.jpg","right",1,8.5363777
"401","S02","Single","Part1",24,"Male",8,"stimulus_part_one_and_two\stimulus8_7_L.jpg","left",1,6.66613970000003
"402","S02","Single","Part1",24,"Male",9,"stimulus_part_one_and_two\stimulus91_28_R.jpg","left",0,30.3863312
"403","S02","Single","Part3",24,"Male",1,"stimulus_part_three\stimulus93_31_L.jpg","left",1,10.6240874
"404","S02","Single","Part3",24,"Male",2,"stimulus_part_three\stimulus94_1_L.jpg","left",1,13.5623023000001
"405","S02","Single","Part3",24,"Male",3,"stimulus_part_three\stimulus95_2_L.jpg","left",1,10.7900391999999
"406","S02","Single","Part3",24,"Male",4,"stimulus_part_three\stimulus96_10_R.jpg","right",1,12.7610244
"407","S03","Single","Part1",26,"Male",1,"stimulus_part_one_and_two\stimulus1_5_L.jpg","left",1,0.79803539999989
"408","S03","Single","Part1",26,"Male",2,"stimulus_part_one_and_two\stimulus2_6_R.jpg","right",1,10.7123535000001
"409","S03","Single","Part1",26,"Male",3,"stimulus_part_one_and_two\stimulus3_5_L.jpg","left",1,8.8405757999999
"410","S03","Single","Part1",26,"Male",4,"stimulus_part_one_and_two\stimulus4_7_L.jpg","left",1,20.5122408
"411","S03","Single","Part1",26,"Male",5,"stimulus_part_one_and_two\stimulus5_6_R.jpg","right",1,10.7367239
"412","S03","Single","Part1",26,"Male",6,"stimulus_part_one_and_two\stimulus6_8_R.jpg","left",0,7.23906220000003
"413","S03","Single","Part1",26,"Male",7,"stimulus_part_one_and_two\stimulus7_8_R.jpg","left",0,10.4566064999999
"414","S03","Single","Part1",26,"Male",8,"stimulus_part_one_and_two\stimulus8_7_L.jpg","left",1,17.2036803000001
"415","S03","Single","Part1",26,"Male",9,"stimulus_part_one_and_two\stimulus91_28_R.jpg","right",1,69.1333849
"416","S03","Single","Part3",26,"Male",1,"stimulus_part_three\stimulus93_31_L.jpg","right",0,46.7067967
"417","S03","Single","Part3",26,"Male",2,"stimulus_part_three\stimulus94_1_L.jpg","left",1,47.0042627
"418","S03","Single","Part3",26,"Male",3,"stimulus_part_three\stimulus95_2_L.jpg","left",1,55.7132028000001
"419","S03","Single","Part3",26,"Male",4,"stimulus_part_three\stimulus96_10_R.jpg","right",1,93.9743554000001
"420","S04","Single","Part1",22,"Female",1,"stimulus_part_one_and_two\stimulus1_5_L.jpg","right",0,0.80320969999957
"421","S04","Single","Part1",22,"Female",2,"stimulus_part_one_and_two\stimulus2_6_R.jpg","left",0,4.13739139999961
"422","S04","Single","Part1",22,"Female",3,"stimulus_part_one_and_two\stimulus3_5_L.jpg","left",1,16.1293717999997
"423","S04","Single","Part1",22,"Female",4,"stimulus_part_one_and_two\stimulus4_7_L.jpg","left",1,26.2826772999997
"424","S04","Single","Part1",22,"Female",5,"stimulus_part_one_and_two\stimulus5_6_R.jpg","left",0,21.5587151999989
"425","S04","Single","Part1",22,"Female",6,"stimulus_part_one_and_two\stimulus6_8_R.jpg","right",1,25.4701053000008
"426","S04","Single","Part1",22,"Female",7,"stimulus_part_one_and_two\stimulus7_8_R.jpg","right",1,50.3612893999998
"427","S04","Single","Part1",22,"Female",8,"stimulus_part_one_and_two\stimulus8_7_L.jpg","left",1,39.6401523000004
"428","S04","Single","Part1",22,"Female",9,"stimulus_part_one_and_two\stimulus91_28_R.jpg","right",1,32.2421513999998
"429","S04","Single","Part3",22,"Female",1,"stimulus_part_three\stimulus93_31_L.jpg","left",1,33.7753987000015
"430","S04","Single","Part3",22,"Female",2,"stimulus_part_three\stimulus94_1_L.jpg","right",0,29.7767003999998
"431","S04","Single","Part3",22,"Female",3,"stimulus_part_three\stimulus95_2_L.jpg","left",1,36.2868348000011
"432","S04","Single","Part3",22,"Female",4,"stimulus_part_three\stimulus96_10_R.jpg","left",0,28.9522766999999
"433","S05","Single","Part1",22,"Female",1,"stimulus_part_one_and_two\stimulus1_5_L.jpg","right",0,1.32977010000104
"434","S05","Single","Part1",22,"Female",2,"stimulus_part_one_and_two\stimulus2_6_R.jpg","right",1,68.7014223000006
"435","S05","Single","Part1",22,"Female",3,"stimulus_part_one_and_two\stimulus3_5_L.jpg","left",1,20.413956700002
"436","S05","Single","Part1",22,"Female",4,"stimulus_part_one_and_two\stimulus4_7_L.jpg","left",1,27.1422960000018
"437","S05","Single","Part1",22,"Female",5,"stimulus_part_one_and_two\stimulus5_6_R.jpg","right",1,23.0632148000004
"438","S05","Single","Part1",22,"Female",6,"stimulus_part_one_and_two\stimulus6_8_R.jpg","right",1,38.4844420000009
"439","S05","Single","Part1",22,"Female",7,"stimulus_part_one_and_two\stimulus7_8_R.jpg","right",1,19.6464258999986
"440","S05","Single","Part1",22,"Female",8,"stimulus_part_one_and_two\stimulus8_7_L.jpg","left",1,11.6458560999999
"441","S05","Single","Part1",22,"Female",9,"stimulus_part_one_and_two\stimulus91_28_R.jpg","right",1,117.652065800001
"442","S05","Single","Part3",22,"Female",1,"stimulus_part_three\stimulus93_31_L.jpg","left",1,20.2853584000004
"443","S05","Single","Part3",22,"Female",2,"stimulus_part_three\stimulus94_1_L.jpg","left",1,43.3194409999996
"444","S05","Single","Part3",22,"Female",3,"stimulus_part_three\stimulus95_2_L.jpg","left",1,25.0557716000003
"445","S05","Single","Part3",22,"Female",4,"stimulus_part_three\stimulus96_10_R.jpg","right",1,37.9921227000013
"446","S06","Single","Part1",21,"Female",1,"stimulus_part_one_and_two\stimulus1_5_L.jpg","right",0,3.88939519999985
"447","S06","Single","Part1",21,"Female",2,"stimulus_part_one_and_two\stimulus2_6_R.jpg","left",0,16.2624333999993
"448","S06","Single","Part1",21,"Female",3,"stimulus_part_one_and_two\stimulus3_5_L.jpg","right",0,35.3811253999993
"449","S06","Single","Part1",21,"Female",4,"stimulus_part_one_and_two\stimulus4_7_L.jpg","left",1,35.7580522999997
"450","S06","Single","Part1",21,"Female",5,"stimulus_part_one_and_two\stimulus5_6_R.jpg","right",1,15.7357878000003
"451","S06","Single","Part1",21,"Female",6,"stimulus_part_one_and_two\stimulus6_8_R.jpg","right",1,10.4468450999993
"452","S06","Single","Part1",21,"Female",7,"stimulus_part_one_and_two\stimulus7_8_R.jpg","right",1,13.3094156000006
"453","S06","Single","Part1",21,"Female",8,"stimulus_part_one_and_two\stimulus8_7_L.jpg","left",1,7.71816110000145
"454","S06","Single","Part1",21,"Female",9,"stimulus_part_one_and_two\stimulus91_28_R.jpg","right",1,14.6762950000011
"455","S06","Single","Part3",21,"Female",1,"stimulus_part_three\stimulus93_31_L.jpg","left",1,14.6714495000015
"456","S06","Single","Part3",21,"Female",2,"stimulus_part_three\stimulus94_1_L.jpg","left",1,20.1206309000008
"457","S06","Single","Part3",21,"Female",3,"stimulus_part_three\stimulus95_2_L.jpg","left",1,14.9536509999998
"458","S06","Single","Part3",21,"Female",4,"stimulus_part_three\stimulus96_10_R.jpg","right",1,12.0948755999998
"459","S07","Single","Part1",22,"Male",1,"stimulus_part_one_and_two\stimulus1_5_L.jpg","left",1,8.4226101000022
"460","S07","Single","Part1",22,"Male",2,"stimulus_part_one_and_two\stimulus2_6_R.jpg","right",1,7.37205540000286
"461","S07","Single","Part1",22,"Male",3,"stimulus_part_one_and_two\stimulus3_5_L.jpg","left",1,14.6589436000031
"462","S07","Single","Part1",22,"Male",4,"stimulus_part_one_and_two\stimulus4_7_L.jpg","left",1,10.9266113999984
"463","S07","Single","Part1",22,"Male",5,"stimulus_part_one_and_two\stimulus5_6_R.jpg","right",1,4.78876450000098
"464","S07","Single","Part1",22,"Male",6,"stimulus_part_one_and_two\stimulus6_8_R.jpg","right",1,7.90744349999659
"465","S07","Single","Part1",22,"Male",7,"stimulus_part_one_and_two\stimulus7_8_R.jpg","left",0,7.5574506999983
"466","S07","Single","Part1",22,"Male",8,"stimulus_part_one_and_two\stimulus8_7_L.jpg","left",1,6.50143019999814
"467","S07","Single","Part1",22,"Male",9,"stimulus_part_one_and_two\stimulus91_28_R.jpg","left",0,24.4138948
"468","S07","Single","Part3",22,"Male",1,"stimulus_part_three\stimulus93_31_L.jpg","right",0,15.846989200003
"469","S07","Single","Part3",22,"Male",2,"stimulus_part_three\stimulus94_1_L.jpg","left",1,28.8475779
"470","S07","Single","Part3",22,"Male",3,"stimulus_part_three\stimulus95_2_L.jpg","left",1,19.7596792000004
"471","S07","Single","Part3",22,"Male",4,"stimulus_part_three\stimulus96_10_R.jpg","right",1,16.6219378999995
"472","S08","Single","Part1",20,"Female",1,"stimulus_part_one_and_two\stimulus1_5_L.jpg","right",0,1.99982540000019
"473","S08","Single","Part1",20,"Female",2,"stimulus_part_one_and_two\stimulus2_6_R.jpg","right",1,11.7657692000002
"474","S08","Single","Part1",20,"Female",3,"stimulus_part_one_and_two\stimulus3_5_L.jpg","right",0,5.00463739999941
"475","S08","Single","Part1",20,"Female",4,"stimulus_part_one_and_two\stimulus4_7_L.jpg","left",1,10.6912417000003
"476","S08","Single","Part1",20,"Female",5,"stimulus_part_one_and_two\stimulus5_6_R.jpg","right",1,15.6151884000001
"477","S08","Single","Part1",20,"Female",6,"stimulus_part_one_and_two\stimulus6_8_R.jpg","right",1,18.0125330999999
"478","S08","Single","Part1",20,"Female",7,"stimulus_part_one_and_two\stimulus7_8_R.jpg","left",0,13.6259933000001
"479","S08","Single","Part1",20,"Female",8,"stimulus_part_one_and_two\stimulus8_7_L.jpg","left",1,14.0626349000004
"480","S08","Single","Part1",20,"Female",9,"stimulus_part_one_and_two\stimulus91_28_R.jpg","right",1,15.4059667000001
"481","S08","Single","Part3",20,"Female",1,"stimulus_part_three\stimulus93_31_L.jpg","left",1,15.0140734000006
"482","S08","Single","Part3",20,"Female",2,"stimulus_part_three\stimulus94_1_L.jpg","right",0,14.8180494999997
"483","S08","Single","Part3",20,"Female",3,"stimulus_part_three\stimulus95_2_L.jpg","right",0,11.7221006999998
"484","S08","Single","Part3",20,"Female",4,"stimulus_part_three\stimulus96_10_R.jpg","right",1,15.0608308000001
"485","S09","Single","Part1",23,"Female",1,"stimulus_part_one_and_two\stimulus1_5_L.jpg","left",1,0.705473399999391
"486","S09","Single","Part1",23,"Female",2,"stimulus_part_one_and_two\stimulus2_6_R.jpg","right",1,16.1498815999985
"487","S09","Single","Part1",23,"Female",3,"stimulus_part_one_and_two\stimulus3_5_L.jpg","right",0,14.1327127999994
"488","S09","Single","Part1",23,"Female",4,"stimulus_part_one_and_two\stimulus4_7_L.jpg","right",0,19.0613871999994
"489","S09","Single","Part1",23,"Female",5,"stimulus_part_one_and_two\stimulus5_6_R.jpg","right",1,13.6711212999999
"490","S09","Single","Part1",23,"Female",6,"stimulus_part_one_and_two\stimulus6_8_R.jpg","right",1,12.6449445999988
"491","S09","Single","Part1",23,"Female",7,"stimulus_part_one_and_two\stimulus7_8_R.jpg","right",1,18.3180042999993
"492","S09","Single","Part1",23,"Female",8,"stimulus_part_one_and_two\stimulus8_7_L.jpg","left",1,18.558109399999
"493","S09","Single","Part1",23,"Female",9,"stimulus_part_one_and_two\stimulus91_28_R.jpg","left",0,83.6355069000001
"494","S09","Single","Part3",23,"Female",1,"stimulus_part_three\stimulus93_31_L.jpg","right",0,40.8874360000009
"495","S09","Single","Part3",23,"Female",2,"stimulus_part_three\stimulus94_1_L.jpg","left",1,18.0412283000005
"496","S09","Single","Part3",23,"Female",3,"stimulus_part_three\stimulus95_2_L.jpg","left",1,36.880315800001
"497","S09","Single","Part3",23,"Female",4,"stimulus_part_three\stimulus96_10_R.jpg","right",1,27.6873674000017
"498","S10","Single","Part1",29,"Female",1,"stimulus_part_one_and_two\stimulus1_5_L.jpg","left",1,12.7394391000271
"499","S10","Single","Part1",29,"Female",2,"stimulus_part_one_and_two\stimulus2_6_R.jpg","right",1,9.14676339994185
"500","S10","Single","Part1",29,"Female",3,"stimulus_part_one_and_two\stimulus3_5_L.jpg","left",1,19.2714169998653
"501","S10","Single","Part1",29,"Female",4,"stimulus_part_one_and_two\stimulus4_7_L.jpg","left",1,11.5182785000652
"502","S10","Single","Part1",29,"Female",5,"stimulus_part_one_and_two\stimulus5_6_R.jpg","right",1,6.12392379995435
"503","S10","Single","Part1",29,"Female",6,"stimulus_part_one_and_two\stimulus6_8_R.jpg","right",1,9.41485299984924
"504","S10","Single","Part1",29,"Female",7,"stimulus_part_one_and_two\stimulus7_8_R.jpg","right",1,9.97224839986302
"505","S10","Single","Part1",29,"Female",8,"stimulus_part_one_and_two\stimulus8_7_L.jpg","left",1,16.3746913999785
"506","S10","Single","Part1",29,"Female",9,"stimulus_part_one_and_two\stimulus91_28_R.jpg","right",1,57.2527883001603
"507","S10","Single","Part3",29,"Female",1,"stimulus_part_three\stimulus93_31_L.jpg","left",1,17.8272354
"508","S10","Single","Part3",29,"Female",2,"stimulus_part_three\stimulus94_1_left_b.jpg","left",1,19.4574818
"509","S10","Single","Part3",29,"Female",3,"stimulus_part_three\stimulus95_2_left.jpg","left",1,42.3744732
"510","S10","Single","Part3",29,"Female",4,"stimulus_part_three\stimulus96_10_1.jpg","left",0,46.4149207
"511","S11","Single","Part3",27,"Female",1,"stimulus_part_three\stimulus93_31_L.jpg","left",1,21.3959194999188
"512","S11","Single","Part3",27,"Female",2,"stimulus_part_three\stimulus94_1_L.jpg","left",1,22.6023732998874
"513","S11","Single","Part3",27,"Female",3,"stimulus_part_three\stimulus95_2_L.jpg","left",1,29.1117835999466
"514","S11","Single","Part3",27,"Female",4,"stimulus_part_three\stimulus96_10_R.jpg","left",0,14.8728622000199
"515","S11","Single","Part1",27,"Female",1,"stimulus_part_one_and_two\stimulus1_5_L.jpg","right",0,6.89321419992484
"516","S11","Single","Part1",27,"Female",2,"stimulus_part_one_and_two\stimulus2_6_R.jpg","left",0,1.60991739993915
"517","S11","Single","Part1",27,"Female",3,"stimulus_part_one_and_two\stimulus3_5_L.jpg","right",0,0.827975900145248
"518","S11","Single","Part1",27,"Female",4,"stimulus_part_one_and_two\stimulus4_7_L.jpg","left",1,29.4285581998993
"519","S11","Single","Part1",27,"Female",5,"stimulus_part_one_and_two\stimulus5_6_R.jpg","right",1,21.6385602999944
"520","S11","Single","Part1",27,"Female",6,"stimulus_part_one_and_two\stimulus6_8_R.jpg","left",0,18.5055352000054
"521","S11","Single","Part1",27,"Female",7,"stimulus_part_one_and_two\stimulus7_8_R.jpg","left",0,36.814076700015
"522","S11","Single","Part1",27,"Female",8,"stimulus_part_one_and_two\stimulus8_7_L.jpg","left",1,37.1074451999739
"523","S11","Single","Part1",27,"Female",9,"stimulus_part_one_and_two\stimulus91_28_R.jpg","left",0,43.1554066000972
"524","CP01b","Pair","Part1",25,"Female",1,"stimulus_part_one_and_two\stimulus1_5_L.jpg","left",1,97.6497039000005
"525","CP01b","Pair","Part1",25,"Female",2,"stimulus_part_one_and_two\stimulus2_6_R.jpg","right",1,33.1336078999993
"526","CP01b","Pair","Part1",25,"Female",3,"stimulus_part_one_and_two\stimulus3_5_L.jpg","left",1,43.7269928000005
"527","CP01b","Pair","Part1",25,"Female",4,"stimulus_part_one_and_two\stimulus4_7_L.jpg","left",1,39.6040885000002
"528","CP01b","Pair","Part1",25,"Female",5,"stimulus_part_one_and_two\stimulus5_6_R.jpg","right",1,31.5022282000009
"529","CP01b","Pair","Part1",25,"Female",6,"stimulus_part_one_and_two\stimulus6_8_R.jpg","right",1,52.3320273999998
"530","CP01b","Pair","Part1",25,"Female",7,"stimulus_part_one_and_two\stimulus7_8_R.jpg","right",1,61.4094053999997
"531","CP01b","Pair","Part1",25,"Female",8,"stimulus_part_one_and_two\stimulus8_7_L.jpg","left",1,18.1884356999999
"532","CP01b","Pair","Part1",25,"Female",9,"stimulus_part_one_and_two\stimulus91_28_R.jpg","right",1,15.2612534
"533","CP02b","Pair","Part1",33,"Male",3,"stimulus_part_one_and_two\stimulus3_5_L.jpg","left",1,36.9652179000004
"534","CP02b","Pair","Part1",33,"Male",4,"stimulus_part_one_and_two\stimulus4_7_L.jpg","left",1,18.2453781999993
"535","CP02b","Pair","Part1",33,"Male",7,"stimulus_part_one_and_two\stimulus7_8_R.jpg","right",1,8.45434899999964
"536","CP02b","Pair","Part1",33,"Male",8,"stimulus_part_one_and_two\stimulus8_7_L.jpg","left",1,16.4225944
"537","CP02b","Pair","Part1",33,"Male",5,"stimulus_part_one_and_two\stimulus5_6_R.jpg","right",1,11.8165004000002
"538","CP02b","Pair","Part1",33,"Male",6,"stimulus_part_one_and_two\stimulus6_8_R.jpg","right",1,8.34952040000007
"539","CP02b","Pair","Part1",33,"Male",1,"stimulus_part_one_and_two\stimulus1_5_L.jpg","left",1,38.7692612999999
"540","CP02b","Pair","Part1",33,"Male",2,"stimulus_part_one_and_two\stimulus2_6_R.jpg","right",1,43.5327523000005
"541","CP02b","Pair","Part1",33,"Male",9,"stimulus_part_one_and_two\stimulus91_28_R.jpg","right",1,22.2121734000002
"542","CP03b","Pair","Part1",28,"Male",1,"stimulus_part_one_and_two\stimulus1_5_L.jpg","left",1,69.876769
"543","CP03b","Pair","Part1",28,"Male",2,"stimulus_part_one_and_two\stimulus2_6_R.jpg","left",0,25.9674253000003
"544","CP03b","Pair","Part1",28,"Male",3,"stimulus_part_one_and_two\stimulus3_5_L.jpg","left",1,61.1820807000004
"545","CP03b","Pair","Part1",28,"Male",8,"stimulus_part_one_and_two\stimulus8_7_L.jpg","left",1,6.54400329999999
"546","CP03b","Pair","Part1",28,"Male",9,"stimulus_part_one_and_two\stimulus91_28_R.jpg","right",1,17.6625310000004
"547","CP03b","Pair","Part1",28,"Male",5,"stimulus_part_one_and_two\stimulus5_6_R.jpg","right",1,6.19352800000024
"548","CP03b","Pair","Part1",28,"Male",6,"stimulus_part_one_and_two\stimulus6_8_R.jpg","right",1,6.02400970000008
"549","CP03b","Pair","Part1",28,"Male",7,"stimulus_part_one_and_two\stimulus7_8_R.jpg","right",1,7.98707899999999
"550","CP03b","Pair","Part1",28,"Male",4,"stimulus_part_one_and_two\stimulus4_7_L.jpg","left",1,9.015355
"551","CP04b","Pair","Part1",21,"Female",1,"stimulus_part_one_and_two\stimulus1_5_L.jpg","right",0,34.0980703
"552","CP04b","Pair","Part1",21,"Female",2,"stimulus_part_one_and_two\stimulus2_6_R.jpg","right",1,160.6143134
"553","CP04b","Pair","Part1",21,"Female",3,"stimulus_part_one_and_two\stimulus3_5_L.jpg","left",1,31.8258747
"554","CP04b","Pair","Part1",21,"Female",4,"stimulus_part_one_and_two\stimulus4_7_L.jpg","left",1,23.6793508999997
"555","CP04b","Pair","Part1",21,"Female",5,"stimulus_part_one_and_two\stimulus5_6_R.jpg","right",1,36.4101124999997
"556","CP04b","Pair","Part1",21,"Female",6,"stimulus_part_one_and_two\stimulus6_8_R.jpg","right",1,41.7082024000001
"557","CP04b","Pair","Part1",21,"Female",7,"stimulus_part_one_and_two\stimulus7_8_R.jpg","right",1,12.7060758000002
"558","CP04b","Pair","Part1",21,"Female",8,"stimulus_part_one_and_two\stimulus8_7_L.jpg","left",1,7.20660889999999
"559","CP04b","Pair","Part1",21,"Female",9,"stimulus_part_one_and_two\stimulus91_28_R.jpg","right",1,28.8774295999997
"560","CP05b","Pair","Part1",22,"Female",3,"stimulus_part_one_and_two\stimulus3_5_L.jpg","left",1,33.0606362999997
"561","CP05b","Pair","Part1",22,"Female",6,"stimulus_part_one_and_two\stimulus6_8_R.jpg","right",1,49.3092651999996
"562","CP05b","Pair","Part1",22,"Female",7,"stimulus_part_one_and_two\stimulus7_8_R.jpg","right",1,9.60591340000065
"563","CP05b","Pair","Part1",22,"Female",4,"stimulus_part_one_and_two\stimulus4_7_L.jpg","left",1,12.6768518999997
"564","CP05b","Pair","Part1",22,"Female",5,"stimulus_part_one_and_two\stimulus5_6_R.jpg","right",1,21.3678766999992
"565","CP05b","Pair","Part1",22,"Female",1,"stimulus_part_one_and_two\stimulus1_5_L.jpg","left",1,22.2262579999997
"566","CP05b","Pair","Part1",22,"Female",2,"stimulus_part_one_and_two\stimulus2_6_R.jpg","right",1,18.7813838000002
"567","CP05b","Pair","Part1",22,"Female",8,"stimulus_part_one_and_two\stimulus8_7_L.jpg","left",1,6.74102589999984
"568","CP05b","Pair","Part1",22,"Female",9,"stimulus_part_one_and_two\stimulus91_28_R.jpg","left",0,31.2117915000008
"569","CP06b","Pair","Part1",22,"Female",1,"stimulus_part_one_and_two\stimulus1_5_L.jpg","left",1,12.7047889999994
"570","CP06b","Pair","Part1",22,"Female",2,"stimulus_part_one_and_two\stimulus2_6_R.jpg","right",1,8.22155029999885
"571","CP06b","Pair","Part1",22,"Female",7,"stimulus_part_one_and_two\stimulus7_8_R.jpg","right",1,5.37301999999909
"572","CP06b","Pair","Part1",22,"Female",8,"stimulus_part_one_and_two\stimulus8_7_L.jpg","left",1,5.31711820000055
"573","CP06b","Pair","Part1",22,"Female",9,"stimulus_part_one_and_two\stimulus91_28_R.jpg","right",1,11.2128587999996
"574","CP06b","Pair","Part1",22,"Female",4,"stimulus_part_one_and_two\stimulus4_7_L.jpg","left",1,7.78995690000011
"575","CP06b","Pair","Part1",22,"Female",5,"stimulus_part_one_and_two\stimulus5_6_R.jpg","right",1,5.4641732
"576","CP06b","Pair","Part1",22,"Female",6,"stimulus_part_one_and_two\stimulus6_8_R.jpg","right",1,6.6942358999986
"577","CP06b","Pair","Part1",22,"Female",3,"stimulus_part_one_and_two\stimulus3_5_L.jpg","left",1,9.49362260000089
"578","CP07b","Pair","Part1",29,"Female",1,"stimulus_part_one_and_two\stimulus1_5_L.jpg","left",1,6.33850030000031
"579","CP07b","Pair","Part1",29,"Female",2,"stimulus_part_one_and_two\stimulus2_6_R.jpg","right",1,31.1022164000005
"580","CP07b","Pair","Part1",29,"Female",3,"stimulus_part_one_and_two\stimulus3_5_L.jpg","right",0,0.197743199998513
"581","CP07b","Pair","Part1",29,"Female",4,"stimulus_part_one_and_two\stimulus4_7_L.jpg","left",1,25.3416233999997
"582","CP07b","Pair","Part1",29,"Female",5,"stimulus_part_one_and_two\stimulus5_6_R.jpg","right",1,12.4878870000011
"583","CP07b","Pair","Part1",29,"Female",6,"stimulus_part_one_and_two\stimulus6_8_R.jpg","right",1,8.68610369999988
"584","CP07b","Pair","Part1",29,"Female",7,"stimulus_part_one_and_two\stimulus7_8_R.jpg","right",1,8.53448399999979
"585","CP07b","Pair","Part1",29,"Female",8,"stimulus_part_one_and_two\stimulus8_7_L.jpg","left",1,10.4468594999998
"586","CP07b","Pair","Part1",29,"Female",9,"stimulus_part_one_and_two\stimulus91_28_R.jpg","right",1,35.3415774999994
"587","CP08b","Pair","Part1",23,"Male",3,"stimulus_part_one_and_two\stimulus3_5_L.jpg","left",1,4.66240220000327
"588","CP08b","Pair","Part1",23,"Male",6,"stimulus_part_one_and_two\stimulus6_8_R.jpg","right",1,3.98236429999815
"589","CP08b","Pair","Part1",23,"Male",7,"stimulus_part_one_and_two\stimulus7_8_R.jpg","right",1,5.18132749999859
"590","CP08b","Pair","Part1",23,"Male",4,"stimulus_part_one_and_two\stimulus4_7_L.jpg","left",1,4.20712379999895
"591","CP08b","Pair","Part1",23,"Male",5,"stimulus_part_one_and_two\stimulus5_6_R.jpg","right",1,5.98375769999984
"592","CP08b","Pair","Part1",23,"Male",1,"stimulus_part_one_and_two\stimulus1_5_L.jpg","left",1,14.5942027000019
"593","CP08b","Pair","Part1",23,"Male",2,"stimulus_part_one_and_two\stimulus2_6_R.jpg","right",1,4.78176590000294
"594","CP08b","Pair","Part1",23,"Male",8,"stimulus_part_one_and_two\stimulus8_7_L.jpg","left",1,4.01285160000043
"595","CP08b","Pair","Part1",23,"Male",9,"stimulus_part_one_and_two\stimulus91_28_R.jpg","right",1,16.9004074000004
"596","CP09b","Pair","Part1",32,"Female",1,"stimulus_part_one_and_two\stimulus1_5_L.jpg","left",1,71.8966922
"597","CP09b","Pair","Part1",32,"Female",2,"stimulus_part_one_and_two\stimulus2_6_R.jpg","right",1,103.1888031
"598","CP09b","Pair","Part1",32,"Female",7,"stimulus_part_one_and_two\stimulus7_8_R.jpg","right",1,72.2118055999999
"599","CP09b","Pair","Part1",32,"Female",8,"stimulus_part_one_and_two\stimulus8_7_L.jpg","left",1,119.4529666
"600","CP09b","Pair","Part1",32,"Female",9,"stimulus_part_one_and_two\stimulus91_28_R.jpg","right",1,79.1312085000009
"601","CP09b","Pair","Part1",32,"Female",5,"stimulus_part_one_and_two\stimulus5_6_R.jpg","right",1,40.7272472000004
"602","CP09b","Pair","Part1",32,"Female",6,"stimulus_part_one_and_two\stimulus6_8_R.jpg","left",0,64.5324764999987
"603","CP09b","Pair","Part1",32,"Female",3,"stimulus_part_one_and_two\stimulus3_5_L.jpg","right",0,97.531143799999
"604","CP09b","Pair","Part1",32,"Female",4,"stimulus_part_one_and_two\stimulus4_7_L.jpg","left",1,29.6280849999985
"605","CP10b","Pair","Part1",27,"Male",1,"stimulus_part_one_and_two\stimulus1_5_L.jpg","left",1,14.6416166999998
"606","CP10b","Pair","Part1",27,"Male",2,"stimulus_part_one_and_two\stimulus2_6_R.jpg","right",1,12.8457048
"607","CP10b","Pair","Part1",27,"Male",3,"stimulus_part_one_and_two\stimulus3_5_L.jpg","left",1,16.5669363000002
"608","CP10b","Pair","Part1",27,"Male",4,"stimulus_part_one_and_two\stimulus4_7_L.jpg","left",1,14.4664233000003
"609","CP10b","Pair","Part1",27,"Male",5,"stimulus_part_one_and_two\stimulus5_6_R.jpg","right",1,7.59406609999996
"610","CP10b","Pair","Part1",27,"Male",6,"stimulus_part_one_and_two\stimulus6_8_R.jpg","right",1,3.80406570000014
"611","CP10b","Pair","Part1",27,"Male",9,"stimulus_part_one_and_two\stimulus91_28_R.jpg","right",1,21.2843911999998
"612","CP10b","Pair","Part1",27,"Male",7,"stimulus_part_one_and_two\stimulus7_8_R.jpg","right",1,4.72750219999989
"613","CP10b","Pair","Part1",27,"Male",8,"stimulus_part_one_and_two\stimulus8_7_L.jpg","left",1,3.52017669999987
"614","FP01b","FlexPairB","Part1",23,"Male",3,"stimulus_part_one_and_two\stimulus3_5_L.jpg","right",0,3.5303399000004
"615","FP01b","FlexPairB","Part1",23,"Male",2,"stimulus_part_one_and_two\stimulus2_6_R.jpg","right",1,4.01081239999985
"616","FP01b","FlexPairB","Part1",23,"Male",7,"stimulus_part_one_and_two\stimulus7_8_R.jpg","left",0,9.48485489999985
"617","FP01b","FlexPairB","Part1",23,"Male",4,"stimulus_part_one_and_two\stimulus4_7_L.jpg","left",1,11.1889747999994
"618","FP01b","FlexPairB","Part1",23,"Male",5,"stimulus_part_one_and_two\stimulus5_6_R.jpg","right",1,13.3035896000001
"619","FP01b","FlexPairB","Part1",23,"Male",6,"stimulus_part_one_and_two\stimulus6_8_R.jpg","right",1,18.4289203000008
"620","FP01b","FlexPairB","Part1",23,"Male",2,"stimulus_part_one\stimulus2_6_R.jpg","right",1,16.7146911
"621","FP01b","FlexPairB","Part1",23,"Male",8,"stimulus_part_one_and_two\stimulus8_7_L.jpg","left",1,10.8779718000005
"622","FP01b","FlexPairB","Part1",23,"Male",9,"stimulus_part_one_and_two\stimulus91_28_R.jpg","right",1,23.6031634999999
"623","FP01b","FlexPairB","Part1",23,"Male",1,"stimulus_part_one\stimulus1_5_L.jpg","left",1,35.5131522000011
"624","FP01b","FlexPairB","Part1",23,"Male",1,"stimulus_part_one_and_two\stimulus1_5_L.jpg","left",1,2.68212330000097
"625","FP01b","FlexPairB","Part1",23,"Male",3,"stimulus_part_one\stimulus3_5_L.jpg","left",1,8.90761969999949
"626","FP01b","FlexPairB","Part1",23,"Male",4,"stimulus_part_one\stimulus4_7_L.jpg","left",1,11.5979958999997
"627","FP02b","FlexPairB","Part1",26,"Female",3,"stimulus_part_one_and_two\stimulus3_5_L.jpg","right",0,10.0065699000006
"628","FP02b","FlexPairB","Part1",26,"Female",6,"stimulus_part_one_and_two\stimulus6_8_R.jpg","right",1,110.500334800001
"629","FP02b","FlexPairB","Part1",26,"Female",7,"stimulus_part_one_and_two\stimulus7_8_R.jpg","right",1,24.7805423999998
"630","FP02b","FlexPairB","Part1",26,"Female",4,"stimulus_part_one_and_two\stimulus4_7_L.jpg","left",1,7.26234819999991
"631","FP02b","FlexPairB","Part1",26,"Female",5,"stimulus_part_one_and_two\stimulus5_6_R.jpg","left",0,74.3999479999984
"632","FP02b","FlexPairB","Part1",26,"Female",1,"stimulus_part_one\stimulus1_5_L.jpg","right",0,5.24373880000007
"633","FP02b","FlexPairB","Part1",26,"Female",2,"stimulus_part_one\stimulus2_6_R.jpg","left",0,3.24775530000011
"634","FP02b","FlexPairB","Part1",26,"Female",8,"stimulus_part_one_and_two\stimulus8_7_L.jpg","left",1,12.6707735
"635","FP02b","FlexPairB","Part1",26,"Female",9,"stimulus_part_one_and_two\stimulus91_28_R.jpg","right",1,18.0278698000002
"636","FP02b","FlexPairB","Part1",26,"Female",1,"stimulus_part_one_and_two\stimulus1_5_L.jpg","right",0,2.1621314999993
"637","FP02b","FlexPairB","Part1",26,"Female",2,"stimulus_part_one_and_two\stimulus2_6_R.jpg","left",0,4.63872330000049
"638","FP02b","FlexPairB","Part1",26,"Female",3,"stimulus_part_one\stimulus3_5_L.jpg","right",0,17.4191329
"639","FP02b","FlexPairB","Part1",26,"Female",4,"stimulus_part_one\stimulus4_7_L.jpg","right",0,3.09712919999993
"640","FP03b","FlexPairB","Part1",22,"Female",3,"stimulus_part_one_and_two\stimulus3_5_L.jpg","left",1,5.85492810000051
"641","FP03b","FlexPairB","Part1",22,"Female",6,"stimulus_part_one_and_two\stimulus6_8_R.jpg","right",1,11.2540223999995
"642","FP03b","FlexPairB","Part1",22,"Female",7,"stimulus_part_one_and_two\stimulus7_8_R.jpg","right",1,10.6133084000003
"643","FP03b","FlexPairB","Part1",22,"Female",4,"stimulus_part_one_and_two\stimulus4_7_L.jpg","left",1,7.07924279999952
"644","FP03b","FlexPairB","Part1",22,"Female",5,"stimulus_part_one_and_two\stimulus5_6_R.jpg","right",1,25.6320163
"645","FP03b","FlexPairB","Part1",22,"Female",1,"stimulus_part_one\stimulus1_5_L.jpg","right",0,3.56364040000062
"646","FP03b","FlexPairB","Part1",22,"Female",2,"stimulus_part_one\stimulus2_6_R.jpg","right",1,36.8827858000004
"647","FP03b","FlexPairB","Part1",22,"Female",8,"stimulus_part_one_and_two\stimulus8_7_L.jpg","left",1,9.97398590000012
"648","FP03b","FlexPairB","Part1",22,"Female",9,"stimulus_part_one_and_two\stimulus91_28_R.jpg","right",1,21.5727061000007
"649","FP03b","FlexPairB","Part1",22,"Female",1,"stimulus_part_one_and_two\stimulus1_5_L.jpg","left",1,13.4512072999996
"650","FP03b","FlexPairB","Part1",22,"Female",2,"stimulus_part_one_and_two\stimulus2_6_R.jpg","right",1,9.62175810000008
"651","FP03b","FlexPairB","Part1",22,"Female",3,"stimulus_part_one\stimulus3_5_L.jpg","left",1,9.74117710000064
"652","FP03b","FlexPairB","Part1",22,"Female",4,"stimulus_part_one\stimulus4_7_L.jpg","left",1,20.6776866999999
"653","FP04b","FlexPairB","Part1",25,"Female",3,"stimulus_part_one_and_two\stimulus3_5_L.jpg","left",1,80.0565164
"654","FP04b","FlexPairB","Part1",25,"Female",4,"stimulus_part_one_and_two\stimulus4_7_L.jpg","left",1,86.3894924000001
"655","FP04b","FlexPairB","Part1",25,"Female",7,"stimulus_part_one_and_two\stimulus7_8_R.jpg","right",1,14.6712625
"656","FP04b","FlexPairB","Part1",25,"Female",8,"stimulus_part_one_and_two\stimulus8_7_L.jpg","left",1,22.0177103999999
"657","FP04b","FlexPairB","Part1",25,"Female",5,"stimulus_part_one_and_two\stimulus5_6_R.jpg","right",1,24.3211879
"658","FP04b","FlexPairB","Part1",25,"Female",6,"stimulus_part_one_and_two\stimulus6_8_R.jpg","right",1,12.3827951000003
"659","FP04b","FlexPairB","Part1",25,"Female",2,"stimulus_part_one\stimulus2_6_R.jpg","right",1,66.3376956000002
"660","FP04b","FlexPairB","Part1",25,"Female",3,"stimulus_part_one\stimulus3_5_L.jpg","left",1,19.6822807999997
"661","FP04b","FlexPairB","Part1",25,"Female",9,"stimulus_part_one_and_two\stimulus91_28_R.jpg","right",1,27.4973540000001
"662","FP04b","FlexPairB","Part1",25,"Female",1,"stimulus_part_one\stimulus1_5_L.jpg","right",0,1.61304279999968
"663","FP04b","FlexPairB","Part1",25,"Female",1,"stimulus_part_one_and_two\stimulus1_5_L.jpg","right",0,3.12066790000017
"664","FP04b","FlexPairB","Part1",25,"Female",2,"stimulus_part_one_and_two\stimulus2_6_R.jpg","left",0,5.41770079999969
"665","FP04b","FlexPairB","Part1",25,"Female",4,"stimulus_part_one\stimulus4_7_L.jpg","left",1,22.9178781000001
"666","FP05b","FlexPairB","Part1",24,"Female",4,"stimulus_part_one_and_two\stimulus4_7_L.jpg","right",0,25.5808406999995
"667","FP05b","FlexPairB","Part1",24,"Female",6,"stimulus_part_one_and_two\stimulus6_8_R.jpg","right",1,36.2203103000002
"668","FP05b","FlexPairB","Part1",24,"Female",7,"stimulus_part_one_and_two\stimulus7_8_R.jpg","right",1,17.9962090999998
"669","FP05b","FlexPairB","Part1",24,"Female",8,"stimulus_part_one_and_two\stimulus8_7_L.jpg","left",1,21.9101138000005
"670","FP05b","FlexPairB","Part1",24,"Female",5,"stimulus_part_one_and_two\stimulus5_6_R.jpg","right",1,49.7993134999997
"671","FP05b","FlexPairB","Part1",24,"Female",1,"stimulus_part_one\stimulus1_5_L.jpg","left",1,10.8625959000001
"672","FP05b","FlexPairB","Part1",24,"Female",2,"stimulus_part_one\stimulus2_6_R.jpg","right",1,18.8419093000002
"673","FP05b","FlexPairB","Part1",24,"Female",3,"stimulus_part_one\stimulus3_5_L.jpg","left",1,10.0133365000002
"674","FP05b","FlexPairB","Part1",24,"Female",9,"stimulus_part_one_and_two\stimulus91_28_R.jpg","right",1,19.6280563999999
"675","FP05b","FlexPairB","Part1",24,"Female",1,"stimulus_part_one_and_two\stimulus1_5_L.jpg","left",1,3.21780149999995
"676","FP05b","FlexPairB","Part1",24,"Female",2,"stimulus_part_one_and_two\stimulus2_6_R.jpg","left",0,2.69345869999961
"677","FP05b","FlexPairB","Part1",24,"Female",3,"stimulus_part_one_and_two\stimulus3_5_L.jpg","left",1,7.66166609999982
"678","FP05b","FlexPairB","Part1",24,"Female",4,"stimulus_part_one\stimulus4_7_L.jpg","left",1,0.0355307999998331
"679","FP06b","FlexPairB","Part1",64,"Male",4,"stimulus_part_one_and_two\stimulus4_7_L.jpg","left",1,6.48552440000003
"680","FP06b","FlexPairB","Part1",64,"Male",6,"stimulus_part_one_and_two\stimulus6_8_R.jpg","right",1,6.46125480000046
"681","FP06b","FlexPairB","Part1",64,"Male",7,"stimulus_part_one_and_two\stimulus7_8_R.jpg","right",1,3.94100009999966
"682","FP06b","FlexPairB","Part1",64,"Male",8,"stimulus_part_one_and_two\stimulus8_7_L.jpg","left",1,46.2622221000001
"683","FP06b","FlexPairB","Part1",64,"Male",5,"stimulus_part_one_and_two\stimulus5_6_R.jpg","right",1,140.5745171
"684","FP06b","FlexPairB","Part1",64,"Male",1,"stimulus_part_one\stimulus1_5_L.jpg","right",0,7.93327070000032
"685","FP06b","FlexPairB","Part1",64,"Male",2,"stimulus_part_one\stimulus2_6_R.jpg","left",0,0.829965900000389
"686","FP06b","FlexPairB","Part1",64,"Male",3,"stimulus_part_one\stimulus3_5_L.jpg","left",1,8.95377959999951
"687","FP06b","FlexPairB","Part1",64,"Male",9,"stimulus_part_one_and_two\stimulus91_28_R.jpg","right",1,31.5795602000017
"688","FP06b","FlexPairB","Part1",64,"Male",1,"stimulus_part_one_and_two\stimulus1_5_L.jpg","left",1,7.17850799999997
"689","FP06b","FlexPairB","Part1",64,"Male",2,"stimulus_part_one_and_two\stimulus2_6_R.jpg","right",1,11.8610234000007
"690","FP06b","FlexPairB","Part1",64,"Male",3,"stimulus_part_one_and_two\stimulus3_5_L.jpg","left",1,8.23014419999981
"691","FP06b","FlexPairB","Part1",64,"Male",4,"stimulus_part_one\stimulus4_7_L.jpg","left",1,29.6744001999996
"692","FP07b","FlexPairB","Part1",23,"Male",4,"stimulus_part_one_and_two\stimulus4_7_L.jpg","right",0,61.284533
"693","FP07b","FlexPairB","Part1",23,"Male",5,"stimulus_part_one_and_two\stimulus5_6_R.jpg","right",1,77.6320997000003
"694","FP07b","FlexPairB","Part1",23,"Male",7,"stimulus_part_one_and_two\stimulus7_8_R.jpg","right",1,24.1259203999998
"695","FP07b","FlexPairB","Part1",23,"Male",8,"stimulus_part_one_and_two\stimulus8_7_L.jpg","left",1,4.68583699999999
"696","FP07b","FlexPairB","Part1",23,"Male",9,"stimulus_part_one_and_two\stimulus91_28_R.jpg","left",0,29.8608986999998
"697","FP07b","FlexPairB","Part1",23,"Male",6,"stimulus_part_one_and_two\stimulus6_8_R.jpg","right",1,30.7091988000002
"698","FP07b","FlexPairB","Part1",23,"Male",2,"stimulus_part_one\stimulus2_6_R.jpg","right",1,33.6736586999996
"699","FP07b","FlexPairB","Part1",23,"Male",3,"stimulus_part_one\stimulus3_5_L.jpg","left",1,29.2207045000005
"700","FP07b","FlexPairB","Part1",23,"Male",4,"stimulus_part_one\stimulus4_7_L.jpg","left",1,58.2503997000003
"701","FP07b","FlexPairB","Part1",23,"Male",1,"stimulus_part_one\stimulus1_5_L.jpg","left",1,39.6374815999998
"702","FP07b","FlexPairB","Part1",23,"Male",1,"stimulus_part_one_and_two\stimulus1_5_L.jpg","left",1,17.3230349000005
"703","FP07b","FlexPairB","Part1",23,"Male",2,"stimulus_part_one_and_two\stimulus2_6_R.jpg","right",1,28.7965306999995
"704","FP07b","FlexPairB","Part1",23,"Male",3,"stimulus_part_one_and_two\stimulus3_5_L.jpg","left",1,42.5655772
"705","FP08b","FlexPairB","Part1",25,"Female",5,"stimulus_part_one_and_two\stimulus5_6_R.jpg","left",0,13.6398427999993
"706","FP08b","FlexPairB","Part1",25,"Female",6,"stimulus_part_one_and_two\stimulus6_8_R.jpg","left",0,43.6857748999992
"707","FP08b","FlexPairB","Part1",25,"Female",7,"stimulus_part_one_and_two\stimulus7_8_R.jpg","right",1,56.4225439000002
"708","FP08b","FlexPairB","Part1",25,"Female",8,"stimulus_part_one_and_two\stimulus8_7_L.jpg","left",1,86.254021499999
"709","FP08b","FlexPairB","Part1",25,"Female",9,"stimulus_part_one_and_two\stimulus91_28_R.jpg","left",0,29.8198154000002
"710","FP08b","FlexPairB","Part1",25,"Female",1,"stimulus_part_one\stimulus1_5_L.jpg","left",1,8.09191950000059
"711","FP08b","FlexPairB","Part1",25,"Female",2,"stimulus_part_one\stimulus2_6_R.jpg","left",0,9.25403809999989
"712","FP08b","FlexPairB","Part1",25,"Female",3,"stimulus_part_one\stimulus3_5_L.jpg","left",1,9.00138960000004
"713","FP08b","FlexPairB","Part1",25,"Female",4,"stimulus_part_one\stimulus4_7_L.jpg","left",1,7.69602139999915
"714","FP08b","FlexPairB","Part1",25,"Female",1,"stimulus_part_one_and_two\stimulus1_5_L.jpg","left",1,1.76208960000076
"715","FP08b","FlexPairB","Part1",25,"Female",2,"stimulus_part_one_and_two\stimulus2_6_R.jpg","right",1,6.25428579999971
"716","FP08b","FlexPairB","Part1",25,"Female",3,"stimulus_part_one_and_two\stimulus3_5_L.jpg","right",0,8.51884690000043
"717","FP08b","FlexPairB","Part1",25,"Female",4,"stimulus_part_one_and_two\stimulus4_7_L.jpg","right",0,14.0458940000008
"718","FP09b","FlexPairB","Part1",33,"Male",5,"stimulus_part_one_and_two\stimulus5_6_R.jpg","right",1,12.8734942999999
"719","FP09b","FlexPairB","Part1",33,"Male",6,"stimulus_part_one_and_two\stimulus6_8_R.jpg","right",1,9.57102650000024
"720","FP09b","FlexPairB","Part1",33,"Male",7,"stimulus_part_one_and_two\stimulus7_8_R.jpg","right",1,13.0692805000003
"721","FP09b","FlexPairB","Part1",33,"Male",8,"stimulus_part_one_and_two\stimulus8_7_L.jpg","left",1,6.5056883000002
"722","FP09b","FlexPairB","Part1",33,"Male",9,"stimulus_part_one_and_two\stimulus91_28_R.jpg","right",1,324.1786126
"723","FP09b","FlexPairB","Part1",33,"Male",1,"stimulus_part_one\stimulus1_5_L.jpg","right",0,2.59745479999992
"724","FP09b","FlexPairB","Part1",33,"Male",2,"stimulus_part_one\stimulus2_6_R.jpg","left",0,15.235283
"725","FP09b","FlexPairB","Part1",33,"Male",3,"stimulus_part_one\stimulus3_5_L.jpg","right",0,40.2470947000002
"726","FP09b","FlexPairB","Part1",33,"Male",4,"stimulus_part_one\stimulus4_7_L.jpg","left",1,88.0514061000003
"727","FP09b","FlexPairB","Part1",33,"Male",1,"stimulus_part_one_and_two\stimulus1_5_L.jpg","left",1,122.8260561
"728","FP09b","FlexPairB","Part1",33,"Male",2,"stimulus_part_one_and_two\stimulus2_6_R.jpg","right",1,13.5268834000003
"729","FP09b","FlexPairB","Part1",33,"Male",3,"stimulus_part_one_and_two\stimulus3_5_L.jpg","left",1,10.2079751000001
"730","FP09b","FlexPairB","Part1",33,"Male",4,"stimulus_part_one_and_two\stimulus4_7_L.jpg","left",1,10.0254055
"731","FP10b","FlexPairB","Part1",22,"Male",1,"stimulus_part_one_and_two\stimulus1_5_L.jpg","left",1,44.5938288999987
"732","FP10b","FlexPairB","Part1",22,"Male",2,"stimulus_part_one_and_two\stimulus2_6_R.jpg","right",1,36.3180448999992
"733","FP10b","FlexPairB","Part1",22,"Male",3,"stimulus_part_one_and_two\stimulus3_5_L.jpg","right",0,6.60645099999965
"734","FP10b","FlexPairB","Part1",22,"Male",4,"stimulus_part_one_and_two\stimulus4_7_L.jpg","left",1,20.2608928000009
"735","FP10b","FlexPairB","Part1",22,"Male",5,"stimulus_part_one_and_two\stimulus5_6_R.jpg","left",0,24.1521817000012
"736","FP10b","FlexPairB","Part1",22,"Male",6,"stimulus_part_one_and_two\stimulus6_8_R.jpg","right",1,36.7101438999998
"737","FP10b","FlexPairB","Part1",22,"Male",7,"stimulus_part_one_and_two\stimulus7_8_R.jpg","right",1,30.2928518000008
"738","FP10b","FlexPairB","Part1",22,"Male",8,"stimulus_part_one_and_two\stimulus8_7_L.jpg","left",1,24.0295894999999
"739","FP10b","FlexPairB","Part1",22,"Male",9,"stimulus_part_one_and_two\stimulus91_28_R.jpg","left",0,48.619850000001
"740","FP10b","FlexPairB","Part1",22,"Male",2,"stimulus_part_one\stimulus2_6_R.jpg","right",1,11.1067827000006
"741","FP10b","FlexPairB","Part1",22,"Male",3,"stimulus_part_one\stimulus3_5_L.jpg","left",1,21.6440650000004
"742","FP10b","FlexPairB","Part1",22,"Male",4,"stimulus_part_one\stimulus4_7_L.jpg","right",0,11.7768858999989
"743","FP10b","FlexPairB","Part1",22,"Male",1,"stimulus_part_one\stimulus1_5_L.jpg","left",1,53.7294466000003
